time,seconds_elapsed,z,y,x
1763368284221007400,0.06000732421875,-0.9258270263671875,-0.4468536376953125,-0.0031280517578125
1763368284231032300,0.0700322265625,-0.9154510498046875,-0.48333740234375,-0.0037994384765625
1763368284241057300,0.080057373046875,-0.9014129638671875,-0.479766845703125,0.0060272216796875
1763368284251082500,0.09008251953125,-0.8683319091796875,-0.4342498779296875,0.0385894775390625
1763368284261107500,0.100107421875,-0.87921142578125,-0.3743438720703125,0.061309814453125
1763368284271132400,0.11013232421875,-0.9097137451171875,-0.3592987060546875,0.0126953125
1763368284281157400,0.120157470703125,-0.9064483642578125,-0.38934326171875,-0.0774688720703125
1763368284291183400,0.130183349609375,-0.8439483642578125,-0.4167938232421875,-0.153961181640625
1763368284301208600,0.14020849609375,-0.749420166015625,-0.4120635986328125,-0.1725311279296875
1763368284311233500,0.150233642578125,-0.663848876953125,-0.3535308837890625,-0.1111907958984375
1763368284321258200,0.16025830078125,-0.6174163818359375,-0.2928466796875,-0.0277099609375
1763368284331283500,0.170283447265625,-0.6150665283203125,-0.335723876953125,-0.00762939453125
1763368284341308400,0.180308349609375,-0.5994720458984375,-0.386962890625,-0.008514404296875
1763368284351333400,0.19033349609375,-0.4979400634765625,-0.3656005859375,0.05377197265625
1763368284361358300,0.2003583984375,-0.4282073974609375,-0.2472686767578125,0.1733856201171875
1763368284371383600,0.210383544921875,-0.393096923828125,-0.1540679931640625,0.21923828125
1763368284381409300,0.2204091796875,-0.3501434326171875,-0.16082763671875,0.14312744140625
1763368284391434500,0.2304345703125,-0.3687591552734375,-0.25396728515625,0.1113433837890625
1763368284401459500,0.24045947265625,-0.4022216796875,-0.3623504638671875,0.082916259765625
1763368284411484400,0.250484375,-0.473785400390625,-0.4619598388671875,0.0133056640625
1763368284421509600,0.260509521484375,-0.498504638671875,-0.547088623046875,-0.0681304931640625
1763368284431534600,0.27053466796875,-0.3955230712890625,-0.5464324951171875,-0.0338134765625
1763368284441559300,0.280559326171875,-0.3080291748046875,-0.45416259765625,0.0544586181640625
1763368284451584300,0.290584228515625,-0.2760467529296875,-0.36798095703125,0.0898590087890625
1763368284461609500,0.300609375,-0.2777557373046875,-0.313934326171875,0.0792083740234375
1763368284471635500,0.310635498046875,-0.3270416259765625,-0.2605743408203125,0.07177734375
1763368284481660400,0.320660400390625,-0.340789794921875,-0.244476318359375,0.1204986572265625
1763368284491685400,0.330685302734375,-0.4005279541015625,-0.296600341796875,0.0992889404296875
1763368284501710300,0.34071044921875,-0.5975189208984375,-0.4545440673828125,-0.050506591796875
1763368284511735600,0.350735595703125,-0.68536376953125,-0.567779541015625,-0.08880615234375
1763368284521760500,0.360760498046875,-0.661102294921875,-0.591583251953125,-0.054443359375
1763368284531785500,0.370785400390625,-0.64617919921875,-0.5347137451171875,-0.044647216796875
1763368284541810400,0.380810546875,-0.63458251953125,-0.4192047119140625,-0.03173828125
1763368284551835400,0.39083544921875,-0.7194366455078125,-0.2646636962890625,0.0531463623046875
1763368284561861600,0.400861572265625,-0.8128509521484375,-0.1053466796875,0.1212158203125
1763368284571886300,0.41088623046875,-0.80364990234375,-0.029052734375,0.136627197265625
1763368284581911300,0.420911376953125,-0.8307647705078125,-0.0580291748046875,0.1725311279296875
1763368284591936300,0.430936279296875,-0.7762451171875,-0.1502532958984375,0.2102203369140625
1763368284601961500,0.44096142578125,-0.6624755859375,-0.1860504150390625,0.3637847900390625
1763368284611986400,0.450986328125,-0.531524658203125,-0.1374969482421875,0.638885498046875
1763368284622011400,0.461011474609375,-0.5116119384765625,-0.0448150634765625,0.9074249267578125
1763368284632036400,0.471036376953125,-0.5983123779296875,0.0673675537109375,1.0792388916015625
1763368284642061600,0.4810615234375,-0.7230224609375,0.1278839111328125,1.183837890625
1763368284652087600,0.491087646484375,-0.806640625,0.0607452392578125,1.2666168212890625
1763368284662112500,0.501112548828125,-0.8133697509765625,-0.0414886474609375,1.2927398681640625
1763368284672137500,0.511137451171875,-0.79150390625,-0.1302490234375,1.2813568115234375
1763368284682162400,0.521162353515625,-0.7760009765625,-0.2073974609375,1.22821044921875
1763368284692187400,0.5311875,-0.7307586669921875,-0.233428955078125,1.14483642578125
1763368284702212400,0.54121240234375,-0.6713714599609375,-0.21044921875,1.073455810546875
1763368284712237300,0.5512373046875,-0.599884033203125,-0.16851806640625,1.0666046142578125
1763368284722262300,0.56126220703125,-0.5144195556640625,-0.1193389892578125,1.1346893310546875
1763368284732288300,0.571288330078125,-0.4521331787109375,-0.1010894775390625,1.2836761474609375
1763368284742313500,0.5813134765625,-0.4064788818359375,-0.118377685546875,1.434722900390625
1763368284752338400,0.59133837890625,-0.353912353515625,-0.1249237060546875,1.5809326171875
1763368284762363400,0.60136328125,-0.2924652099609375,-0.1205596923828125,1.698211669921875
1763368284772388400,0.611388427734375,-0.2521514892578125,-0.1142730712890625,1.70294189453125
1763368284782413600,0.62141357421875,-0.2247467041015625,-0.1200408935546875,1.5848388671875
1763368284792438500,0.6314384765625,-0.220977783203125,-0.1444854736328125,1.398193359375
1763368284802463200,0.641463134765625,-0.2156829833984375,-0.18939208984375,1.2053375244140625
1763368284812487400,0.6514873046875,-0.2141571044921875,-0.1822967529296875,1.1324005126953125
1763368284822513400,0.661513427734375,-0.1552276611328125,-0.1136322021484375,1.18804931640625
1763368284832538400,0.671538330078125,-0.0323486328125,-0.05938720703125,1.2730865478515625
1763368284842563300,0.681563232421875,0.1251678466796875,-0.0408477783203125,1.3843231201171875
1763368284852588300,0.69158837890625,0.2869720458984375,-0.030242919921875,1.494659423828125
1763368284862613500,0.701613525390625,0.375732421875,-0.074249267578125,1.4915771484375
1763368284872638500,0.711638427734375,0.3937835693359375,-0.17059326171875,1.3700714111328125
1763368284882663400,0.721663330078125,0.367919921875,-0.2562103271484375,1.228424072265625
1763368284892688600,0.731688720703125,0.281646728515625,-0.2727203369140625,1.1906585693359375
1763368284902714400,0.74171435546875,0.154541015625,-0.2218780517578125,1.27496337890625
1763368284912739600,0.751739501953125,0.0708160400390625,-0.17694091796875,1.411285400390625
1763368284922764300,0.761764404296875,0.021820068359375,-0.1614227294921875,1.4728240966796875
1763368284932789200,0.771789306640625,-0.03314208984375,-0.1759033203125,1.4045562744140625
1763368284942814500,0.781814453125,-0.1057891845703125,-0.2329254150390625,1.2459259033203125
1763368284952839400,0.79183935546875,-0.1370391845703125,-0.3031005859375,1.05816650390625
1763368284962864400,0.801864501953125,-0.1589202880859375,-0.316986083984375,0.9255523681640625
1763368284972889300,0.811889404296875,-0.1630096435546875,-0.2858428955078125,0.8707427978515625
1763368284982914600,0.82191455078125,-0.1402130126953125,-0.2470550537109375,0.8877410888671875
1763368284992940500,0.8319404296875,-0.201995849609375,-0.201416015625,0.9282989501953125
1763368285002965500,0.841965576171875,-0.2254486083984375,-0.2475433349609375,0.9236602783203125
1763368285012990500,0.851990478515625,-0.1215667724609375,-0.3328704833984375,0.8814239501953125
1763368285023015400,0.862015380859375,-0.0044097900390625,-0.3164520263671875,0.8325958251953125
1763368285033040600,0.87204052734375,0.0423736572265625,-0.3052978515625,0.81842041015625
1763368285043065300,0.8820654296875,0.0344696044921875,-0.291290283203125,0.8375396728515625
1763368285053090300,0.89209033203125,-0.080108642578125,-0.279083251953125,0.8571014404296875
1763368285063115300,0.902115234375,-0.182525634765625,-0.2912139892578125,0.894378662109375
1763368285073141200,0.912141357421875,-0.2501068115234375,-0.2795562744140625,0.9298248291015625
1763368285083166500,0.92216650390625,-0.316650390625,-0.288818359375,0.929718017578125
1763368285093191400,0.93219140625,-0.3023834228515625,-0.3311614990234375,0.9309539794921875
1763368285103216400,0.94221630859375,-0.202239990234375,-0.336456298828125,0.9501800537109375
1763368285113241300,0.952241455078125,-0.121002197265625,-0.330047607421875,0.97882080078125
1763368285123266600,0.9622666015625,-0.052154541015625,-0.3098602294921875,1.002166748046875
1763368285133291500,0.97229150390625,-0.0161895751953125,-0.28790283203125,0.9848785400390625
1763368285143316500,0.98231640625,-0.033172607421875,-0.2710418701171875,0.9470062255859375
1763368285153342500,0.992342529296875,-0.0961456298828125,-0.229888916015625,0.9113006591796875
1763368285163367400,1.002367431640625,-0.2017059326171875,-0.1807403564453125,0.8784332275390625
1763368285173392400,1.012392333984375,-0.409515380859375,-0.148101806640625,0.87957763671875
1763368285183417300,1.022417236328125,-0.766937255859375,-0.164947509765625,0.929595947265625
1763368285193442300,1.0324423828125,-0.77728271484375,-0.1496734619140625,0.9485931396484375
1763368285203467300,1.04246728515625,-0.3956756591796875,-0.1075897216796875,0.8718719482421875
1763368285213492500,1.052492431640625,0.0906524658203125,-0.049102783203125,0.765960693359375
1763368285223517400,1.062517333984375,0.2540283203125,-0.0367584228515625,0.6704254150390625
1763368285233543400,1.07254345703125,0.13836669921875,-0.093536376953125,0.63775634765625
1763368285243568400,1.082568359375,-0.0363922119140625,-0.131011962890625,0.6165924072265625
1763368285253593300,1.09259326171875,-0.134124755859375,-0.1143646240234375,0.597137451171875
1763368285263618600,1.10261865234375,-0.2077484130859375,-0.0457916259765625,0.629791259765625
1763368285273643500,1.1126435546875,-0.335540771484375,0.0621337890625,0.7220001220703125
1763368285283668500,1.12266845703125,-0.4862823486328125,0.1598358154296875,0.87408447265625
1763368285293693200,1.132693115234375,-0.603363037109375,0.23675537109375,1.085784912109375
1763368285303718400,1.142718505859375,-0.68157958984375,0.2860260009765625,1.3114013671875
1763368285313743400,1.152743408203125,-0.7411041259765625,0.3228759765625,1.4849090576171875
1763368285323769300,1.162769287109375,-0.733428955078125,0.3333740234375,1.5946807861328125
1763368285333794300,1.172794189453125,-0.6573333740234375,0.2977447509765625,1.628631591796875
1763368285343819300,1.1828193359375,-0.5428924560546875,0.2169189453125,1.5965118408203125
1763368285353844500,1.192844482421875,-0.4586334228515625,0.1746368408203125,1.527984619140625
1763368285363869400,1.202869384765625,-0.4864349365234375,0.2447052001953125,1.4564056396484375
1763368285373894400,1.212894287109375,-0.686065673828125,0.3801422119140625,1.3900604248046875
1763368285383919400,1.22291943359375,-0.7205963134765625,0.434967041015625,1.35302734375
1763368285393944600,1.232944580078125,-0.5336151123046875,0.354705810546875,1.3565826416015625
1763368285403970600,1.242970458984375,-0.6054534912109375,0.319610595703125,1.35223388671875
1763368285413995500,1.25299560546875,-0.5099334716796875,0.2938995361328125,1.392730712890625
1763368285424020500,1.2630205078125,-0.345550537109375,0.2796173095703125,1.4427337646484375
1763368285434045400,1.27304541015625,-0.2960662841796875,0.381317138671875,1.406768798828125
1763368285444070400,1.2830703125,-0.052032470703125,0.5129547119140625,1.430572509765625
1763368285454095400,1.293095458984375,-0.0083770751953125,0.5995635986328125,1.408538818359375
1763368285464120300,1.303120361328125,0.031707763671875,0.477996826171875,1.3256683349609375
1763368285474145500,1.3131455078125,-0.044769287109375,0.1496429443359375,1.30010986328125
1763368285484171300,1.323171142578125,-0.419708251953125,-0.0012054443359375,1.204925537109375
1763368285494196500,1.333196533203125,-0.5848388671875,0.0411376953125,1.02960205078125
1763368285504221400,1.343221435546875,-0.7033843994140625,0.0861358642578125,0.9037628173828125
1763368285514246400,1.353246337890625,-0.324859619140625,0.1445770263671875,0.914947509765625
1763368285524271600,1.363271728515625,0.104888916015625,0.1803741455078125,1.008331298828125
1763368285534296600,1.373296630859375,0.209503173828125,0.120269775390625,1.02093505859375
1763368285544321300,1.3833212890625,0.024688720703125,0.0685272216796875,1.01190185546875
1763368285554346200,1.39334619140625,-0.1746368408203125,0.091827392578125,0.9549713134765625
1763368285564372200,1.403372314453125,-0.098175048828125,0.141021728515625,0.9489898681640625
1763368285574397400,1.4133974609375,0.088409423828125,0.30535888671875,1.09429931640625
1763368285584422400,1.42342236328125,-0.0679473876953125,0.341583251953125,0.94757080078125
1763368285594447400,1.433447265625,-0.066314697265625,0.307220458984375,0.8230438232421875
1763368285604472300,1.443472412109375,0.0423583984375,0.3690643310546875,0.90570068359375
1763368285614497500,1.45349755859375,-0.1303253173828125,0.390838623046875,0.931976318359375
1763368285624522500,1.4635224609375,-0.3739166259765625,0.3612213134765625,0.82293701171875
1763368285634547500,1.47354736328125,-0.42340087890625,0.421783447265625,0.853363037109375
1763368285644573400,1.483573486328125,-0.3686981201171875,0.4114227294921875,0.699493408203125
1763368285654598400,1.493598388671875,-0.189300537109375,0.39215087890625,0.6485443115234375
1763368285664623600,1.50362353515625,-0.093292236328125,0.4489898681640625,0.6822662353515625
1763368285674648600,1.513648681640625,-0.154632568359375,0.4802398681640625,0.6492919921875
1763368285684673300,1.52367333984375,-0.2952880859375,0.4547271728515625,0.5649566650390625
1763368285694698200,1.5336982421875,-0.3079986572265625,0.4021759033203125,0.6080169677734375
1763368285704723500,1.543723388671875,0.018035888671875,0.3420867919921875,1.11602783203125
1763368285714749400,1.55374951171875,-0.1144561767578125,0.413482666015625,1.18658447265625
1763368285724774400,1.5637744140625,-0.2079925537109375,0.4009246826171875,1.08514404296875
1763368285734799400,1.57379931640625,0.10498046875,0.3777008056640625,1.1391754150390625
1763368285744824300,1.58382421875,0.0713653564453125,0.341217041015625,1.269683837890625
1763368285754849500,1.593849609375,-0.3212127685546875,0.23321533203125,1.1229248046875
1763368285764874500,1.60387451171875,-0.4910736083984375,0.2181243896484375,0.91192626953125
1763368285774899500,1.6138994140625,-0.5777435302734375,0.300384521484375,0.832305908203125
1763368285784924400,1.62392431640625,-0.5598602294921875,0.3434906005859375,0.8575592041015625
1763368285794950400,1.633950439453125,-0.4800262451171875,0.314788818359375,0.8030242919921875
1763368285804975600,1.6439755859375,-0.40606689453125,0.2151031494140625,0.6316986083984375
1763368285815000800,1.654000732421875,-0.260772705078125,0.1585693359375,0.5792388916015625
1763368285825025500,1.664025634765625,-0.1505279541015625,0.1800537109375,0.5401153564453125
1763368285835050500,1.674050537109375,-0.058013916015625,0.196563720703125,0.4815673828125
1763368285845075700,1.68407568359375,0.026031494140625,0.1890716552734375,0.3612823486328125
1763368285855100700,1.6941005859375,0.0626373291015625,0.16839599609375,0.31207275390625
1763368285865126700,1.704126708984375,0.0278778076171875,0.151275634765625,0.3224945068359375
1763368285875151600,1.714151611328125,-0.0480194091796875,0.15716552734375,0.374481201171875
1763368285885176600,1.724176513671875,-0.0654754638671875,0.2246246337890625,0.481903076171875
1763368285895201800,1.734201904296875,0.1282958984375,0.26788330078125,0.4623565673828125
1763368285905226800,1.744226806640625,0.1265106201171875,0.2849884033203125,0.31939697265625
1763368285915251700,1.754251708984375,0.085113525390625,0.162506103515625,0.1659393310546875
1763368285925276700,1.764276611328125,0.0094451904296875,0.0953216552734375,0.0952301025390625
1763368285935301600,1.774301513671875,-0.135772705078125,0.1438140869140625,0.176300048828125
1763368285945327900,1.784327880859375,-0.190093994140625,0.23199462890625,0.2541351318359375
1763368285955352600,1.7943525390625,-0.1732635498046875,0.3217926025390625,0.2705230712890625
1763368285965377500,1.80437744140625,-0.1694793701171875,0.349884033203125,0.27471923828125
1763368285975402500,1.814402587890625,-0.2282257080078125,0.3369903564453125,0.1946868896484375
1763368285985427700,1.824427734375,-0.2843780517578125,0.317779541015625,0.0672149658203125
1763368285995452700,1.83445263671875,-0.1872406005859375,0.421600341796875,0.1624603271484375
1763368286005477600,1.8444775390625,-0.1994171142578125,0.5900115966796875,0.38226318359375
1763368286015503600,1.854503662109375,-0.1517791748046875,0.72613525390625,0.626495361328125
1763368286025528600,1.864528564453125,-0.2773895263671875,0.8377685546875,1.21435546875
1763368286035553800,1.8745537109375,-0.5291900634765625,0.630401611328125,1.4008636474609375
1763368286045578800,1.884578857421875,-0.2716217041015625,0.397979736328125,0.6204376220703125
1763368286055603700,1.894603759765625,0.04388427734375,0.618499755859375,0.2003021240234375
1763368286065628700,1.904628662109375,-0.39019775390625,0.6805877685546875,0.5974884033203125
1763368286075653600,1.914653564453125,-1.083587646484375,0.7932281494140625,1.2694854736328125
1763368286085679900,1.924679931640625,-0.947113037109375,0.845794677734375,1.652191162109375
1763368286095704600,1.93470458984375,-0.458587646484375,0.6165008544921875,1.4648895263671875
1763368286105729500,1.9447294921875,-0.237152099609375,0.1747283935546875,0.8789215087890625
1763368286115754500,1.95475439453125,-0.3597259521484375,0.058807373046875,1.07373046875
1763368286125779700,1.96477978515625,-0.4739227294921875,0.3928985595703125,1.5815582275390625
1763368286135804700,1.9748046875,-0.3950653076171875,0.468963623046875,1.6041107177734375
1763368286145829600,1.98482958984375,-0.2262115478515625,0.3975067138671875,1.4454498291015625
1763368286155854600,1.9948544921875,0.030029296875,0.51434326171875,1.5589447021484375
1763368286165880600,2.004880615234375,0.084320068359375,0.51849365234375,1.5835723876953125
1763368286175905800,2.01490576171875,-0.2162628173828125,0.194793701171875,1.013641357421875
1763368286185930800,2.0249306640625,-0.0270233154296875,0.3532562255859375,0.8738861083984375
1763368286195955700,2.034955810546875,-0.1356658935546875,0.04095458984375,0.65667724609375
1763368286205980700,2.044980712890625,-0.734954833984375,-0.1541595458984375,0.196044921875
1763368286216005600,2.055005615234375,-0.5469512939453125,0.2830810546875,0.04083251953125
1763368286226030600,2.065030517578125,0.2067413330078125,0.88226318359375,0.8539276123046875
1763368286236056600,2.075056640625,0.13922119140625,0.729736328125,1.2034454345703125
1763368286246081500,2.08508154296875,-0.4128265380859375,0.8769073486328125,1.5225372314453125
1763368286256106500,2.0951064453125,0.0728607177734375,1.1680450439453125,1.6147918701171875
1763368286266131700,2.105131591796875,0.113616943359375,1.2149658203125,1.49139404296875
1763368286276156700,2.11515673828125,-0.0185089111328125,1.2674407958984375,1.436920166015625
1763368286286181600,2.125181640625,0.0294952392578125,1.4786834716796875,1.45465087890625
1763368286296206600,2.13520654296875,-0.043548583984375,1.430145263671875,1.30230712890625
1763368286306232600,2.145232666015625,-0.1740264892578125,1.293060302734375,1.1659393310546875
1763368286316257800,2.1552578125,-0.394073486328125,1.374359130859375,0.879364013671875
1763368286326282800,2.16528271484375,-0.6147308349609375,1.2169342041015625,0.421600341796875
1763368286336307700,2.1753076171875,-0.311676025390625,0.617706298828125,0.09381103515625
1763368286346332700,2.185332763671875,-0.1294708251953125,0.6541595458984375,-0.0325164794921875
1763368286356357600,2.195357666015625,-0.6019744873046875,1.178009033203125,0.2691497802734375
1763368286366382600,2.205382568359375,-0.95196533203125,1.2620849609375,1.0187835693359375
1763368286376408600,2.21540869140625,-0.853759765625,1.206451416015625,1.371246337890625
1763368286386433500,2.22543359375,-0.77252197265625,1.215362548828125,1.3599700927734375
1763368286396458800,2.235458740234375,-0.9384613037109375,1.1026763916015625,1.3572235107421875
1763368286406483700,2.245483642578125,-0.6259002685546875,1.0514373779296875,1.5774383544921875
1763368286416508700,2.2555087890625,0.1249237060546875,0.9832305908203125,1.7469329833984375
1763368286426533600,2.26553369140625,0.57830810546875,0.8123321533203125,1.678436279296875
1763368286436558800,2.275558837890625,0.4750823974609375,0.6346588134765625,1.531982421875
1763368286446584600,2.28558447265625,0.25042724609375,0.6041412353515625,1.4302520751953125
1763368286456609800,2.29560986328125,0.140045166015625,0.6271820068359375,1.332122802734375
1763368286466634800,2.305634765625,-0.02252197265625,0.65447998046875,1.2200469970703125
1763368286476659700,2.31565966796875,-0.2238922119140625,0.6929168701171875,1.174835205078125
1763368286486684700,2.3256845703125,-0.6063690185546875,0.683563232421875,1.0815887451171875
1763368286496709600,2.335709716796875,-0.637481689453125,0.5692138671875,0.7248687744140625
1763368286506734600,2.345734619140625,-0.5122528076171875,0.5980072021484375,0.620574951171875
1763368286516760600,2.355760498046875,-0.4182586669921875,0.4882965087890625,0.354705810546875
1763368286526785500,2.36578564453125,-0.3185577392578125,0.3040771484375,0.0203857421875
1763368286536810800,2.375810791015625,-0.0294189453125,0.2996826171875,0.1195526123046875
1763368286546835700,2.385835693359375,0.1025238037109375,0.4429473876953125,0.3971710205078125
1763368286556860700,2.395860595703125,0.24371337890625,0.41021728515625,0.4159088134765625
1763368286566885600,2.4058857421875,0.0866851806640625,0.182891845703125,0.162017822265625
1763368286576910800,2.415910888671875,0.0538787841796875,0.0575714111328125,0.0426788330078125
1763368286586935800,2.425935791015625,0.16375732421875,0.1260223388671875,0.060150146484375
1763368286596961800,2.4359619140625,0.0533294677734375,0.23541259765625,-0.008270263671875
1763368286606986800,2.44598681640625,-0.2178497314453125,0.2111053466796875,-0.1359710693359375
1763368286617011500,2.456011474609375,-0.38372802734375,0.1380767822265625,-0.22332763671875
1763368286627036700,2.46603662109375,-0.32916259765625,0.0845184326171875,-0.2001190185546875
1763368286637061600,2.4760615234375,-0.12957763671875,0.1224517822265625,0.51666259765625
1763368286647086600,2.486086669921875,-0.0447235107421875,0.1229248046875,1.290130615234375
1763368286657112600,2.496112548828125,0.1925201416015625,-0.070037841796875,1.458740234375
1763368286667137500,2.506137451171875,0.2743988037109375,-0.2470703125,1.3083038330078125
1763368286677162800,2.516162841796875,0.265350341796875,-0.0196380615234375,1.2422943115234375
1763368286687187700,2.526187744140625,0.2480316162109375,0.15240478515625,1.02532958984375
1763368286697212700,2.536212646484375,0.094696044921875,0.2677001953125,0.782470703125
1763368286707237600,2.546237548828125,-0.1319122314453125,0.36431884765625,0.6761322021484375
1763368286717262800,2.556262939453125,-0.393524169921875,0.4179534912109375,0.691131591796875
1763368286727288800,2.566288818359375,-0.4764556884765625,0.450225830078125,0.7330322265625
1763368286737313800,2.576313720703125,-0.3076629638671875,0.3993072509765625,0.7563934326171875
1763368286747338800,2.5863388671875,-0.060882568359375,0.3860931396484375,0.7636566162109375
1763368286757363500,2.596363525390625,0.1243743896484375,0.36505126953125,0.740020751953125
1763368286767388700,2.606388671875,0.2618255615234375,0.3621673583984375,0.68011474609375
1763368286777413600,2.61641357421875,0.2771759033203125,0.3739471435546875,0.6034698486328125
1763368286787438600,2.6264384765625,0.2200775146484375,0.366668701171875,0.53277587890625
1763368286797464600,2.636464599609375,0.1274871826171875,0.336578369140625,0.4742431640625
1763368286807489500,2.646489501953125,0.038482666015625,0.35614013671875,0.49700927734375
1763368286817515000,2.656514892578125,0.02899169921875,0.3873291015625,0.561431884765625
1763368286827539700,2.666539794921875,0.0718231201171875,0.4187164306640625,0.641632080078125
1763368286837564700,2.676564697265625,0.0946197509765625,0.451507568359375,0.74591064453125
1763368286847589600,2.686589599609375,0.1127471923828125,0.4794921875,0.7819976806640625
1763368286857614800,2.69661474609375,0.17913818359375,0.46820068359375,0.7825927734375
1763368286867640800,2.706640869140625,0.1802825927734375,0.4712677001953125,0.87286376953125
1763368286877665800,2.716665771484375,0.121124267578125,0.473907470703125,0.878814697265625
1763368286887690800,2.726690673828125,0.0613250732421875,0.4789276123046875,0.8637847900390625
1763368286897715700,2.7367158203125,0.0205078125,0.4410858154296875,0.8992156982421875
1763368286907741000,2.746740966796875,-0.05255126953125,0.4040985107421875,0.9850921630859375
1763368286917766000,2.756765869140625,0.049102783203125,0.3464508056640625,0.994049072265625
1763368286927791900,2.7667919921875,0.25909423828125,0.30303955078125,0.9953155517578125
1763368286937816800,2.77681689453125,0.3102874755859375,0.30615234375,1.00830078125
1763368286947841800,2.786841796875,0.12469482421875,0.38848876953125,1.0926361083984375
1763368286957866800,2.79686669921875,0.0370025634765625,0.4281768798828125,1.1517181396484375
1763368286967891700,2.8068916015625,0.10577392578125,0.412139892578125,1.1484832763671875
1763368286977916700,2.816916748046875,0.174835205078125,0.374298095703125,1.0917510986328125
1763368286987942700,2.826942626953125,0.2178192138671875,0.35662841796875,1.043060302734375
1763368286997967600,2.836967529296875,0.167236328125,0.428192138671875,1.0938873291015625
1763368287007992800,2.846992919921875,0.2626953125,0.4888916015625,1.1184844970703125
1763368287018017800,2.857017822265625,0.4331207275390625,0.503326416015625,1.10736083984375
1763368287028042800,2.867042724609375,0.5546875,0.5170745849609375,1.0690155029296875
1763368287038067700,2.877067626953125,0.6274871826171875,0.4920196533203125,1.04913330078125
1763368287048093000,2.887093017578125,0.57794189453125,0.4916839599609375,1.057220458984375
1763368287058119000,2.897118896484375,0.5313262939453125,0.52374267578125,0.972686767578125
1763368287068143900,2.907143798828125,0.210693359375,1.2428436279296875,0.765960693359375
1763368287078168800,2.9171689453125,-0.0792999267578125,0.86297607421875,0.98260498046875
1763368287088193800,2.92719384765625,0.1674957275390625,0.045684814453125,1.0377349853515625
1763368287098218800,2.93721875,0.7816619873046875,0.2455596923828125,1.263275146484375
1763368287108243700,2.94724365234375,0.7483062744140625,0.2928619384765625,1.0955963134765625
1763368287118269700,2.957269775390625,0.3532867431640625,0.4572296142578125,0.9808349609375
1763368287128294700,2.967294677734375,0.067962646484375,0.6429901123046875,1.106109619140625
1763368287138319600,2.977319580078125,-0.040802001953125,0.832611083984375,1.0655364990234375
1763368287148344800,2.9873447265625,-0.03106689453125,0.837890625,0.910491943359375
1763368287158369800,2.997369873046875,0.0449676513671875,0.897186279296875,0.8734893798828125
1763368287168394800,3.007394775390625,0.029022216796875,0.683441162109375,0.7513580322265625
1763368287178420700,3.017420654296875,0.322174072265625,0.6358184814453125,0.775146484375
1763368287188445700,3.02744580078125,0.61041259765625,0.7002410888671875,0.7033843994140625
1763368287198471000,3.037470947265625,0.397979736328125,0.6563262939453125,0.6088714599609375
1763368287208495900,3.047495849609375,0.01312255859375,0.7015533447265625,0.725189208984375
1763368287218520800,3.057520751953125,0.04400634765625,0.6463775634765625,0.6656951904296875
1763368287228545800,3.0675458984375,0.1623382568359375,0.63623046875,0.5421295166015625
1763368287238571800,3.07757177734375,0.1065216064453125,0.6247406005859375,0.4520721435546875
1763368287248596700,3.0875966796875,0.1646575927734375,0.5882415771484375,0.38348388671875
1763368287258621700,3.09762158203125,0.269775390625,0.326995849609375,-0.1569366455078125
1763368287268646700,3.107646728515625,-0.3189544677734375,0.472564697265625,0.4151763916015625
1763368287278671600,3.117671630859375,-0.4508514404296875,0.61834716796875,1.150604248046875
1763368287288696800,3.12769677734375,-0.031890869140625,0.4786376953125,1.323760986328125
1763368287298721800,3.1377216796875,0.2406768798828125,0.314300537109375,1.35693359375
1763368287308747800,3.147747802734375,0.4671173095703125,0.19921875,1.2303466796875
1763368287318772700,3.157772705078125,0.5734405517578125,0.1573638916015625,1.0658721923828125
1763368287328797700,3.167797607421875,0.509613037109375,0.1679840087890625,0.913970947265625
1763368287338823000,3.177822998046875,0.377685546875,0.21075439453125,0.9367828369140625
1763368287348847900,3.187847900390625,0.2686004638671875,0.21514892578125,0.84796142578125
1763368287358873900,3.197873779296875,0.1566314697265625,0.2421875,0.846923828125
1763368287368898800,3.20789892578125,0.013916015625,0.2798309326171875,0.877197265625
1763368287378923800,3.217923828125,-0.01446533203125,0.2399139404296875,0.8394317626953125
1763368287388948700,3.22794873046875,0.03521728515625,0.4153289794921875,0.7865447998046875
1763368287398973700,3.2379736328125,0.1108245849609375,0.6224517822265625,0.7063446044921875
1763368287408998700,3.24799853515625,0.0066680908203125,0.70428466796875,0.4880523681640625
1763368287419024000,3.25802392578125,-0.14093017578125,0.596923828125,0.07269287109375
1763368287429049900,3.2680498046875,-0.279754638671875,0.5957183837890625,-0.223846435546875
1763368287439074800,3.27807470703125,-0.27618408203125,0.5703582763671875,-0.061309814453125
1763368287449099800,3.288099853515625,-0.1585235595703125,0.4390106201171875,0.2277679443359375
1763368287459124700,3.298124755859375,0.0982666015625,0.300506591796875,0.390777587890625
1763368287469150000,3.30814990234375,0.1593475341796875,0.147369384765625,0.5050811767578125
1763368287479175700,3.31817578125,0.127532958984375,0.1253662109375,0.43145751953125
1763368287489201000,3.328200927734375,0.049835205078125,0.2244415283203125,0.3118896484375
1763368287499225900,3.338225830078125,0.0391845703125,0.33355712890625,0.1936492919921875
1763368287509250800,3.348250732421875,-0.023590087890625,0.430084228515625,0.1716461181640625
1763368287519275800,3.35827587890625,-0.2138519287109375,0.5076904296875,0.1779937744140625
1763368287529300700,3.36830078125,-0.2017059326171875,0.451751708984375,0.12066650390625
1763368287539326700,3.37832666015625,-0.2134246826171875,0.3936004638671875,0.0901336669921875
1763368287549351700,3.3883515625,-0.259429931640625,0.4043731689453125,0.1023712158203125
1763368287559376600,3.398376708984375,-0.314849853515625,0.4214630126953125,0.032470703125
1763368287569401900,3.40840185546875,-0.21649169921875,0.438629150390625,0.0150299072265625
1763368287579426800,3.4184267578125,-0.1150665283203125,0.5018157958984375,0.0940399169921875
1763368287589451800,3.42845166015625,0.0258026123046875,0.6216888427734375,0.1838836669921875
1763368287599477800,3.438477783203125,0.1943817138671875,0.9204559326171875,0.2999725341796875
1763368287609502700,3.448502685546875,0.22119140625,1.0624542236328125,0.3368072509765625
1763368287619528000,3.45852783203125,0.2825469970703125,0.7515869140625,0.2410888671875
1763368287629553000,3.468552978515625,0.206939697265625,0.7046356201171875,0.1802215576171875
1763368287639577900,3.478577880859375,-0.136260986328125,0.8136749267578125,0.1395416259765625
1763368287649602800,3.488602783203125,-0.59344482421875,0.9776153564453125,0.0326385498046875
1763368287659628800,3.49862890625,-1.0091094970703125,1.0514678955078125,-0.0359954833984375
1763368287669654000,3.508654052734375,-1.035308837890625,0.9948272705078125,-0.02081298828125
1763368287679678700,3.5186787109375,-0.7796478271484375,0.874542236328125,-0.0061798095703125
1763368287689703700,3.52870361328125,-0.406280517578125,1.096649169921875,-0.138702392578125
1763368287699728600,3.538728759765625,-0.0102996826171875,2.3338623046875,-1.097747802734375
1763368287709753900,3.54875390625,-0.2799835205078125,4.486663818359375,-1.8402099609375
1763368287719779800,3.55877978515625,-0.3189697265625,6.17291259765625,-0.6050262451171875
1763368287729804800,3.5688046875,-0.1652679443359375,3.4636383056640625,0.015960693359375
1763368287739829800,3.578829833984375,-0.2389678955078125,1.2469329833984375,-0.2681427001953125
1763368287749854700,3.588854736328125,0.320343017578125,0.6651763916015625,0.0646514892578125
1763368287759880000,3.5988798828125,0.93292236328125,0.5958404541015625,0.1764984130859375
1763368287769905000,3.60890478515625,0.8952178955078125,1.0159149169921875,0.0414886474609375
1763368287779931000,3.618930908203125,0.4710693359375,1.4759979248046875,-0.1123504638671875
1763368287789955800,3.628955810546875,0.05279541015625,1.6485595703125,-0.23846435546875
1763368287799980800,3.638980712890625,-0.26080322265625,1.548980712890625,-0.379119873046875
1763368287810006000,3.649006103515625,-0.3189239501953125,1.3520050048828125,-0.448883056640625
1763368287820031000,3.659031005859375,-0.25390625,1.2207183837890625,-0.4286651611328125
1763368287830056000,3.669055908203125,-0.1581268310546875,1.15411376953125,-0.367340087890625
1763368287840082000,3.67908203125,-0.0598907470703125,1.1148681640625,-0.3250732421875
1763368287850107000,3.68910693359375,0.0654144287109375,1.1229095458984375,-0.266204833984375
1763368287860132000,3.699132080078125,0.184112548828125,1.1541595458984375,-0.2144012451171875
1763368287870157000,3.709156982421875,0.2883453369140625,1.2216644287109375,-0.1633758544921875
1763368287880182000,3.71918212890625,0.4334259033203125,1.305877685546875,-0.1283111572265625
1763368287890208000,3.7292080078125,0.63970947265625,1.4217071533203125,-0.097930908203125
1763368287900233000,3.73923291015625,0.8839874267578125,1.523773193359375,-0.101318359375
1763368287910258200,3.749258056640625,1.0498046875,1.6165771484375,-0.0662994384765625
1763368287920283100,3.759283203125,1.2775421142578125,1.740081787109375,-0.0336151123046875
1763368287930308000,3.76930810546875,1.0990142822265625,1.7420806884765625,-0.1150970458984375
1763368287940333000,3.7793330078125,0.5949249267578125,1.582275390625,-0.2742156982421875
1763368287950359000,3.789359130859375,0.180633544921875,1.439666748046875,-0.363922119140625
1763368287960384300,3.79938427734375,-0.2107391357421875,1.428680419921875,-0.35150146484375
1763368287970409000,3.809408935546875,-0.366546630859375,1.4763641357421875,-0.297607421875
1763368287980434000,3.819433837890625,-0.3073883056640625,1.4891815185546875,-0.31280517578125
1763368287990459000,3.829458984375,-0.18011474609375,1.5221099853515625,-0.22601318359375
1763368288000484000,3.839484130859375,-0.2637939453125,1.4120330810546875,-0.0936279296875
1763368288010510000,3.849510009765625,-0.3478240966796875,1.251373291015625,-0.025848388671875
1763368288020535000,3.85953515625,-0.4165496826171875,1.2095947265625,0.03533935546875
1763368288030560000,3.86956005859375,-0.301971435546875,1.1222991943359375,0.010650634765625
1763368288040585000,3.8795849609375,0.0591583251953125,1.050872802734375,-0.014434814453125
1763368288050610200,3.889610107421875,0.3115081787109375,1.0699920654296875,0.0017242431640625
1763368288060636200,3.89963623046875,0.4064788818359375,1.0226898193359375,-0.0714263916015625
1763368288070661000,3.9096611328125,0.217193603515625,0.928558349609375,-0.1830291748046875
1763368288080686000,3.91968603515625,0.02618408203125,0.8182525634765625,-0.2277069091796875
1763368288090711000,3.9297109375,0.0323944091796875,0.7120208740234375,-0.236297607421875
1763368288100736300,3.939736328125,0.0003509521484375,0.578094482421875,-0.252716064453125
1763368288110761000,3.949760986328125,-0.090423583984375,0.4327239990234375,-0.241302490234375
1763368288120787200,3.959787109375,-0.126739501953125,0.267730712890625,-0.2394256591796875
1763368288130812000,3.96981201171875,-0.0482177734375,0.142822265625,-0.2234954833984375
1763368288140836900,3.9798369140625,0.033233642578125,0.081268310546875,-0.1895294189453125
1763368288150862000,3.989862060546875,0.10443115234375,0.0322723388671875,-0.1540679931640625
1763368288160887000,3.999886962890625,0.168060302734375,0.016845703125,-0.2081451416015625
1763368288170913000,4.0099130859375,0.1419830322265625,0.0840606689453125,-0.21160888671875
1763368288180938000,4.01993798828125,0.1031341552734375,0.168548583984375,-0.2164306640625
1763368288190963000,4.029962890625,0.1323089599609375,0.2659149169921875,-0.219085693359375
1763368288200988200,4.03998828125,0.1946258544921875,0.3665313720703125,-0.2695770263671875
1763368288211013000,4.05001318359375,0.1703643798828125,0.3891143798828125,-0.2677459716796875
1763368288221038000,4.0600380859375,0.179168701171875,0.3536834716796875,-0.253875732421875
1763368288231064000,4.07006396484375,0.2309112548828125,0.297119140625,-0.1974334716796875
1763368288241089000,4.080089111328125,0.2847747802734375,0.2327880859375,-0.1348876953125
1763368288251114200,4.0901142578125,0.3450927734375,0.217864990234375,-0.0971832275390625
1763368288261139200,4.10013916015625,0.3717193603515625,0.1966552734375,-0.0934906005859375
1763368288271164000,4.110163818359375,0.399688720703125,0.20513916015625,-0.0937652587890625
1763368288281190000,4.12018994140625,0.4286651611328125,0.2667236328125,-0.08489990234375
1763368288291214800,4.13021484375,0.4104766845703125,0.3270111083984375,-0.058135986328125
1763368288301240000,4.140239990234375,0.401214599609375,0.3802642822265625,0.0190277099609375
1763368288311265000,4.15026513671875,0.426971435546875,0.4071197509765625,0.0904693603515625
1763368288321290000,4.1602900390625,0.72491455078125,0.402740478515625,0.116851806640625
1763368288331315000,4.17031494140625,2.3430328369140625,0.34600830078125,0.002777099609375
1763368288341341000,4.1803408203125,3.2787628173828125,0.4444122314453125,-0.18072509765625
1763368288351366100,4.1903662109375,1.1040496826171875,1.113861083984375,-0.2516937255859375
1763368288361391000,4.20039111328125,0.017608642578125,1.4865264892578125,-0.503692626953125
1763368288371416000,4.210416015625,-0.0120391845703125,1.3524322509765625,-0.3978271484375
1763368288381441000,4.22044091796875,1.913482666015625,1.1313629150390625,-0.027252197265625
1763368288391467000,4.230467041015625,0.7589111328125,0.91876220703125,-0.2740020751953125
1763368288401492200,4.2404921875,-0.455078125,0.6588287353515625,-0.83990478515625
1763368288411517200,4.25051708984375,1.2046051025390625,0.4024200439453125,-0.7191162109375
1763368288421542000,4.2605419921875,1.0027923583984375,0.564697265625,0.02764892578125
1763368288431566800,4.27056689453125,0.2806243896484375,0.7975616455078125,0.1723480224609375
1763368288441592000,4.280592041015625,0.637908935546875,0.982940673828125,-0.1035919189453125
1763368288451618000,4.2906181640625,0.522003173828125,1.2012939453125,-0.337249755859375
1763368288461643000,4.30064306640625,0.5605926513671875,1.313446044921875,-0.3891754150390625
1763368288471668000,4.31066796875,0.67877197265625,1.280242919921875,-0.37493896484375
1763368288481693000,4.32069287109375,0.6054534912109375,1.1405487060546875,-0.3696136474609375
1763368288491718100,4.33071826171875,0.5861663818359375,0.94384765625,-0.395660400390625
1763368288501744000,4.340744140625,0.5241851806640625,0.786895751953125,-0.442352294921875
1763368288511769000,4.35076904296875,0.47161865234375,0.6947784423828125,-0.4616851806640625
1763368288521794000,4.3607939453125,0.431396484375,0.7014923095703125,-0.4248504638671875
1763368288531819000,4.370819091796875,0.3586273193359375,0.7830352783203125,-0.36065673828125
1763368288541844200,4.38084423828125,0.232025146484375,0.877105712890625,-0.2906951904296875
1763368288551869200,4.390869140625,0.1863555908203125,1.0065460205078125,-0.23370361328125
1763368288561895200,4.400895263671875,0.1772003173828125,1.1287384033203125,-0.2500457763671875
1763368288571920000,4.410919921875,0.1801605224609375,1.1815185546875,-0.2698974609375
1763368288581944800,4.42094482421875,0.168121337890625,1.15496826171875,-0.2684326171875
1763368288591970000,4.430969970703125,0.1136627197265625,1.11907958984375,-0.2607269287109375
1763368288601995000,4.4409951171875,0.10498046875,1.10052490234375,-0.2378082275390625
1763368288612021000,4.45102099609375,0.1439361572265625,1.0637969970703125,-0.2095489501953125
1763368288622046000,4.4610458984375,0.1734466552734375,1.0144195556640625,-0.1818084716796875
1763368288632071000,4.47107080078125,0.137939453125,0.94586181640625,-0.172821044921875
1763368288642096000,4.48109619140625,0.1038970947265625,0.89434814453125,-0.139617919921875
1763368288652121000,4.49112109375,0.0579833984375,0.849609375,-0.0833740234375
1763368288662147000,4.50114697265625,-0.006744384765625,0.838623046875,-0.032684326171875
1763368288672172000,4.511172119140625,-0.02911376953125,0.823333740234375,-0.0238494873046875
1763368288682197000,4.521197021484375,-0.050689697265625,0.8498382568359375,0.0120391845703125
1763368288692222200,4.53122216796875,-0.05902099609375,0.8612213134765625,0.0471954345703125
1763368288702247200,4.5412470703125,-0.04339599609375,0.9608306884765625,0.0945281982421875
1763368288712272000,4.55127197265625,0.021148681640625,1.092193603515625,0.184814453125
1763368288722298000,4.561298095703125,0.10015869140625,1.1996917724609375,0.27606201171875
1763368288732322800,4.57132275390625,0.232574462890625,1.17205810546875,0.2699737548828125
1763368288742348000,4.58134814453125,0.340301513671875,1.036102294921875,0.184814453125
1763368288752373000,4.591373046875,0.333160400390625,0.921966552734375,0.1047210693359375
1763368288762398000,4.60139794921875,0.2158660888671875,0.83258056640625,0.040283203125
1763368288772424000,4.611423828125,0.156097412109375,0.7531585693359375,0.024993896484375
1763368288782449000,4.621448974609375,0.160797119140625,0.7515106201171875,0.0528564453125
1763368288792474000,4.63147412109375,0.13671875,0.74029541015625,0.0521392822265625
1763368288802499000,4.6414990234375,0.1445770263671875,0.7780303955078125,0.0022430419921875
1763368288812523800,4.651523681640625,0.1605072021484375,0.84320068359375,-0.092529296875
1763368288822549000,4.661549072265625,0.211456298828125,0.8990478515625,-0.248260498046875
1763368288832574700,4.67157470703125,0.2864227294921875,0.9077606201171875,-0.3683929443359375
1763368288842600000,4.681599853515625,0.3266448974609375,0.8539581298828125,-0.4013824462890625
1763368288852625000,4.691625,0.2588348388671875,0.8160400390625,-0.3375701904296875
1763368288862649600,4.701649658203125,0.1402740478515625,0.8116302490234375,-0.3611907958984375
1763368288872674800,4.7116748046875,0.0251007080078125,0.8858489990234375,-0.2783050537109375
1763368288882700800,4.72170068359375,-0.026763916015625,0.998748779296875,-0.10638427734375
1763368288892725800,4.731725830078125,-0.009429931640625,1.060943603515625,0.0052642822265625
1763368288902750700,4.741750732421875,-0.0167083740234375,1.094329833984375,0.09478759765625
1763368288912775700,4.751775634765625,-0.098602294921875,1.0946502685546875,0.157958984375
1763368288922801000,4.76180078125,-0.1662750244140625,1.0986328125,0.1479034423828125
1763368288932827000,4.771826904296875,-0.1788177490234375,1.0846099853515625,0.091278076171875
1763368288942851800,4.781851806640625,-0.180145263671875,1.03631591796875,-0.0712890625
1763368288952876800,4.791876708984375,-0.153961181640625,0.9839019775390625,-0.2467498779296875
1763368288962901800,4.80190185546875,-0.10650634765625,0.928314208984375,-0.3425750732421875
1763368288972927000,4.811927001953125,0.0042724609375,0.9158782958984375,-0.3171844482421875
1763368288982953000,4.821952880859375,0.18194580078125,0.956329345703125,-0.2220916748046875
1763368288992978000,4.83197802734375,0.3623504638671875,1.0234527587890625,-0.140777587890625
1763368289003003000,4.8420029296875,0.46942138671875,1.0831298828125,-0.0733184814453125
1763368289013027600,4.852027587890625,0.428466796875,1.09039306640625,-0.0021514892578125
1763368289023052800,4.862052734375,0.2385406494140625,1.1062774658203125,0.0484161376953125
1763368289033078800,4.872078857421875,0.019287109375,1.1983184814453125,0.04571533203125
1763368289043103700,4.882103759765625,-0.1609039306640625,1.2804107666015625,0.0414581298828125
1763368289053128700,4.892128662109375,-0.321502685546875,1.31005859375,0.0550384521484375
1763368289063153700,4.902153564453125,-0.45263671875,1.3177490234375,0.03564453125
1763368289073179000,4.912178955078125,-0.553741455078125,1.306243896484375,-0.0414886474609375
1763368289083203800,4.922203857421875,-0.5476837158203125,1.292572021484375,-0.2139739990234375
1763368289093229800,4.932229736328125,-0.42559814453125,1.2975006103515625,-0.4058380126953125
1763368289103254800,4.9422548828125,-0.2396087646484375,1.3395233154296875,-0.5065460205078125
1763368289113279700,4.95227978515625,-0.059417724609375,1.3923797607421875,-0.555023193359375
1763368289123305000,4.962304931640625,0.0733642578125,1.4781646728515625,-0.5596771240234375
1763368289133330000,4.972329833984375,0.138885498046875,1.5413818359375,-0.52911376953125
1763368289143356000,4.98235595703125,0.2065887451171875,1.5321197509765625,-0.4557037353515625
1763368289153380900,4.992380859375,0.328765869140625,1.4341278076171875,-0.370819091796875
1763368289163405800,5.00240576171875,0.449066162109375,1.307647705078125,-0.3203887939453125
1763368289173430800,5.0124306640625,0.483856201171875,1.2569732666015625,-0.2768402099609375
1763368289183455700,5.022455810546875,0.466094970703125,1.2679443359375,-0.2713470458984375
1763368289193481700,5.032481689453125,0.4625396728515625,1.3242034912109375,-0.28009033203125
1763368289203506700,5.042506591796875,0.4979705810546875,1.39349365234375,-0.26898193359375
1763368289213531600,5.05253173828125,0.577301025390625,1.453857421875,-0.24981689453125
1763368289223556900,5.062556884765625,0.647308349609375,1.49005126953125,-0.1759796142578125
1763368289233581800,5.072581787109375,0.661407470703125,1.482818603515625,-0.151519775390625
1763368289243606800,5.082606689453125,0.6394805908203125,1.4742584228515625,-0.219818115234375
1763368289253632800,5.0926328125,0.5653228759765625,1.4922637939453125,-0.2707672119140625
1763368289263657700,5.10265771484375,0.3620452880859375,1.4881134033203125,-0.3420867919921875
1763368289273683000,5.112682861328125,0.0131378173828125,1.4688720703125,-0.38104248046875
1763368289283708000,5.1227080078125,-0.3190765380859375,1.3874359130859375,-0.3711090087890625
1763368289293732900,5.13273291015625,-0.4451446533203125,1.2033233642578125,-0.3668212890625
1763368289303758800,5.1427587890625,-0.2404022216796875,1.1937713623046875,-0.2324371337890625
1763368289313783800,5.15278369140625,-0.01434326171875,1.1844024658203125,-0.2155914306640625
1763368289323808800,5.162808837890625,-0.100372314453125,1.0517730712890625,-0.22967529296875
1763368289333833700,5.172833740234375,-0.1884613037109375,0.94140625,-0.2017669677734375
1763368289343858700,5.182858642578125,-0.2248382568359375,0.893463134765625,-0.1503753662109375
1763368289353884700,5.192884765625,-0.2505950927734375,0.8499603271484375,-0.108856201171875
1763368289363909600,5.20290966796875,-0.2714996337890625,0.79632568359375,-0.106170654296875
1763368289373934800,5.212934814453125,-0.087677001953125,0.8238525390625,-0.0956573486328125
1763368289383959800,5.222959716796875,0.31060791015625,0.8521881103515625,-0.0734405517578125
1763368289393984800,5.23298486328125,0.618865966796875,0.9314117431640625,-0.0220184326171875
1763368289404010800,5.2430107421875,0.343292236328125,0.9988250732421875,0.042236328125
1763368289414035700,5.25303564453125,0.0544586181640625,1.052642822265625,0.0772857666015625
1763368289424061000,5.26306103515625,0.1870880126953125,0.9347076416015625,-0.0300750732421875
1763368289434086000,5.2730859375,0.043365478515625,0.7925262451171875,-0.11053466796875
1763368289444110800,5.28311083984375,-0.0558013916015625,0.6520538330078125,-0.12908935546875
1763368289454135800,5.2931357421875,-0.018524169921875,0.5134124755859375,-0.1776885986328125
1763368289464161800,5.303161865234375,0.0703277587890625,0.3698272705078125,-0.27191162109375
1763368289474187000,5.31318701171875,0.09637451171875,0.2429962158203125,-0.3382568359375
1763368289484211700,5.323211669921875,0.1191253662109375,0.158203125,-0.361236572265625
1763368289494236700,5.333236572265625,0.1737518310546875,0.1200103759765625,-0.3559417724609375
1763368289504261600,5.34326171875,0.2406158447265625,0.1401519775390625,-0.31536865234375
1763368289514287600,5.35328759765625,0.29119873046875,0.198089599609375,-0.2987518310546875
1763368289524312800,5.363312744140625,0.3071746826171875,0.280303955078125,-0.32928466796875
1763368289534337800,5.373337890625,0.2698822021484375,0.333343505859375,-0.2960357666015625
1763368289544362800,5.38336279296875,0.3116302490234375,0.3638153076171875,-0.233551025390625
1763368289554387700,5.3933876953125,0.3131103515625,0.3480072021484375,-0.1679534912109375
1763368289564413700,5.40341357421875,0.32562255859375,0.3712158203125,-0.1131134033203125
1763368289574439000,5.41343896484375,0.30963134765625,0.3845367431640625,-0.0924224853515625
1763368289584464000,5.4234638671875,0.3113250732421875,0.3755340576171875,-0.072998046875
1763368289594488800,5.43348876953125,0.388458251953125,0.34539794921875,-0.0320281982421875
1763368289604513800,5.443513671875,0.4495849609375,0.2976226806640625,0.0180816650390625
1763368289614539800,5.453539794921875,0.4120941162109375,0.2642669677734375,0.063873291015625
1763368289624565000,5.46356494140625,0.364532470703125,0.271270751953125,0.105133056640625
1763368289634589700,5.473589599609375,0.341217041015625,0.2820587158203125,0.113555908203125
1763368289644614700,5.48361474609375,0.3305206298828125,0.2771759033203125,0.09576416015625
1763368289654639600,5.4936396484375,0.48602294921875,0.2801361083984375,0.08123779296875
1763368289664665600,5.50366552734375,1.7639007568359375,0.2650909423828125,0.002166748046875
1763368289674690800,5.51369091796875,3.2806854248046875,0.3139801025390625,-0.262054443359375
1763368289684715800,5.5237158203125,1.5164794921875,1.025146484375,-0.3314666748046875
1763368289694740700,5.53374072265625,0.6142730712890625,1.5980377197265625,-0.4711456298828125
1763368289704765700,5.543765625,-0.0745697021484375,1.37249755859375,-0.572113037109375
1763368289714791700,5.553791748046875,0.5803680419921875,0.961944580078125,-0.4105682373046875
1763368289724817000,5.56381689453125,2.06219482421875,0.656951904296875,-0.18353271484375
1763368289734841900,5.573841796875,0.208587646484375,0.606689453125,-0.3829803466796875
1763368289744866800,5.58386669921875,-0.1603240966796875,0.4200592041015625,-0.6602630615234375
1763368289754891800,5.593891845703125,1.358123779296875,0.33489990234375,-0.45477294921875
1763368289764917000,5.6039169921875,0.7945404052734375,0.7784423828125,0.05206298828125
1763368289774943000,5.61394287109375,0.319732666015625,1.13226318359375,0.061279296875
1763368289784968000,5.623968017578125,0.575927734375,1.3081512451171875,-0.181793212890625
1763368289794992600,5.63399267578125,0.558319091796875,1.4527587890625,-0.3791351318359375
1763368289805017600,5.644017578125,0.6343841552734375,1.474029541015625,-0.375762939453125
1763368289815042800,5.654042724609375,0.7012786865234375,1.32891845703125,-0.266571044921875
1763368289825068800,5.66406884765625,0.6927947998046875,1.0535888671875,-0.267120361328125
1763368289835093800,5.67409375,0.7071380615234375,0.7589874267578125,-0.3693389892578125
1763368289845118700,5.68411865234375,0.6004638671875,0.551544189453125,-0.45947265625
1763368289855143700,5.694143798828125,0.5437774658203125,0.4774322509765625,-0.464385986328125
1763368289865169000,5.7041689453125,0.483795166015625,0.528076171875,-0.4046173095703125
1763368289875195000,5.71419482421875,0.3764801025390625,0.684783935546875,-0.30743408203125
1763368289885219800,5.7242197265625,0.3150787353515625,0.883270263671875,-0.206268310546875
1763368289895244800,5.734244873046875,0.2708892822265625,1.0399932861328125,-0.1612548828125
1763368289905269800,5.744269775390625,0.1861724853515625,1.1617584228515625,-0.160369873046875
1763368289915295000,5.754294921875,0.1643218994140625,1.236907958984375,-0.1895294189453125
1763368289925321000,5.764321044921875,0.1080322265625,1.242462158203125,-0.2147064208984375
1763368289935346000,5.774345947265625,0.0872802734375,1.2044219970703125,-0.222259521484375
1763368289945370600,5.78437060546875,0.102691650390625,1.171051025390625,-0.2061920166015625
1763368289955395600,5.7943955078125,0.1230316162109375,1.13409423828125,-0.1869049072265625
1763368289965420800,5.8044208984375,0.134521484375,1.084197998046875,-0.164947509765625
1763368289975446800,5.81444677734375,0.110595703125,0.98779296875,-0.1797943115234375
1763368289985471700,5.8244716796875,0.1105194091796875,0.92962646484375,-0.15728759765625
1763368289995496700,5.83449658203125,0.12518310546875,0.879913330078125,-0.137542724609375
1763368290005521700,5.844521728515625,0.127227783203125,0.83807373046875,-0.130950927734375
1763368290015547000,5.854546875,0.094146728515625,0.86383056640625,-0.1043548583984375
1763368290025572900,5.86457275390625,0.0764617919921875,0.8798980712890625,-0.0787200927734375
1763368290035597800,5.874597900390625,0.0788116455078125,0.8303985595703125,-0.0521240234375
1763368290045622800,5.884622802734375,0.1351165771484375,0.7967071533203125,-0.0135650634765625
1763368290055647700,5.894647705078125,0.19580078125,0.7667999267578125,-0.0066680908203125
1763368290065673000,5.9046728515625,0.2366485595703125,0.7221832275390625,-0.0481719970703125
1763368290075698000,5.914697998046875,0.231964111328125,0.7133941650390625,-0.0337371826171875
1763368290085724000,5.924723876953125,0.2842254638671875,0.8534698486328125,0.0570526123046875
1763368290095748900,5.934748779296875,0.3349609375,1.0092315673828125,0.112274169921875
1763368290105773600,5.944773681640625,0.295257568359375,1.0370941162109375,0.131378173828125
1763368290115798800,5.954798828125,0.2252197265625,0.982086181640625,0.12896728515625
1763368290125823700,5.96482373046875,0.268310546875,0.926513671875,0.09515380859375
1763368290135849700,5.974849609375,0.2962646484375,0.9006805419921875,0.0460357666015625
1763368290145874700,5.984874755859375,0.2959442138671875,0.8808135986328125,-0.0011138916015625
1763368290155899600,5.994899658203125,0.3443450927734375,0.843597412109375,-0.0310211181640625
1763368290165924900,6.0049248046875,0.4178924560546875,0.824310302734375,-0.102783203125
1763368290175949800,6.01494970703125,0.3607940673828125,0.8541717529296875,-0.1711273193359375
1763368290185975800,6.024975830078125,0.227569580078125,0.9049530029296875,-0.265472412109375
1763368290196000800,6.035000732421875,0.125274658203125,0.992523193359375,-0.331756591796875
1763368290206025700,6.045025634765625,0.0477447509765625,1.0500946044921875,-0.2666015625
1763368290216051000,6.055051025390625,0.0233001708984375,1.0387725830078125,-0.178741455078125
1763368290226076000,6.065075927734375,0.0273895263671875,1.021331787109375,-0.0939788818359375
1763368290236102000,6.075101806640625,0.07745361328125,1.0132598876953125,-0.0712432861328125
1763368290246126800,6.085126953125,0.0631561279296875,1.00775146484375,-0.0471343994140625
1763368290256151600,6.095151611328125,-0.0269012451171875,1.0596466064453125,0.0215301513671875
1763368290266176800,6.1051767578125,-0.148895263671875,1.062774658203125,0.0336151123046875
1763368290276201700,6.11520166015625,-0.218475341796875,1.0332183837890625,0.031280517578125
1763368290286227700,6.125227783203125,-0.2874908447265625,0.9941253662109375,0.0248870849609375
1763368290296252700,6.135252685546875,-0.3290863037109375,0.9385986328125,-0.06695556640625
1763368290306277600,6.145277587890625,-0.3176116943359375,0.885406494140625,-0.17919921875
1763368290316302800,6.155302734375,-0.26434326171875,0.8354644775390625,-0.2817230224609375
1763368290326327800,6.165327880859375,-0.148345947265625,0.8332061767578125,-0.2994842529296875
1763368290336353800,6.175353759765625,-0.045867919921875,0.86285400390625,-0.249267578125
1763368290346378800,6.185378662109375,0.0224456787109375,0.9205322265625,-0.1889801025390625
1763368290356403700,6.19540380859375,0.0908966064453125,0.972412109375,-0.15069580078125
1763368290366429000,6.205428955078125,0.1847686767578125,1.025543212890625,-0.11578369140625
1763368290376454000,6.215453857421875,0.2666473388671875,1.0539093017578125,-0.0827789306640625
1763368290386479900,6.22547998046875,0.2883758544921875,1.0504913330078125,-0.0798492431640625
1763368290396504800,6.2355048828125,0.21356201171875,1.0492095947265625,-0.116912841796875
1763368290406529800,6.24552978515625,0.0874176025390625,1.07330322265625,-0.168609619140625
1763368290416554800,6.2555546875,-0.0579833984375,1.070404052734375,-0.1768035888671875
1763368290426579700,6.265579833984375,-0.1963653564453125,1.046234130859375,-0.1416168212890625
1763368290436605700,6.275605712890625,-0.2843475341796875,1.05010986328125,-0.0944366455078125
1763368290446630700,6.285630615234375,-0.31390380859375,1.0806884765625,-0.02679443359375
1763368290456655600,6.295655517578125,-0.289581298828125,1.1042938232421875,0.0294647216796875
1763368290466680800,6.305680908203125,-0.248199462890625,1.1349029541015625,0.0572662353515625
1763368290476705800,6.315705810546875,-0.2246856689453125,1.2160491943359375,0.0636749267578125
1763368290486730800,6.325730712890625,-0.2338409423828125,1.27886962890625,0.0341644287109375
1763368290496756700,6.3357568359375,-0.210357666015625,1.287933349609375,-0.03271484375
1763368290506781700,6.34578173828125,-0.1378326416015625,1.2746429443359375,-0.1235504150390625
1763368290516807000,6.355806884765625,-0.059234619140625,1.2744140625,-0.2422332763671875
1763368290526831900,6.365831787109375,0.0064849853515625,1.32843017578125,-0.3349609375
1763368290536856800,6.37585693359375,0.0277557373046875,1.388275146484375,-0.394500732421875
1763368290546882800,6.3858828125,0.0189666748046875,1.418121337890625,-0.4267425537109375
1763368290556907800,6.39590771484375,0.01763916015625,1.4167022705078125,-0.42755126953125
1763368290566932700,6.4059326171875,0.0575408935546875,1.378662109375,-0.4124603271484375
1763368290576957700,6.415957763671875,0.1602783203125,1.3323516845703125,-0.3924407958984375
1763368290586982700,6.425982666015625,0.296661376953125,1.297088623046875,-0.377716064453125
1763368290597008600,6.436008544921875,0.4398193359375,1.2781219482421875,-0.3622283935546875
1763368290607033900,6.446033935546875,0.57568359375,1.2843475341796875,-0.3465576171875
1763368290617058800,6.456058837890625,0.6802520751953125,1.31451416015625,-0.2954864501953125
1763368290627083800,6.466083740234375,0.7741546630859375,1.351959228515625,-0.2413330078125
1763368290637108700,6.476108642578125,0.899200439453125,1.40008544921875,-0.196807861328125
1763368290647134700,6.486134765625,1.03594970703125,1.47210693359375,-0.143798828125
1763368290657159700,6.49615966796875,1.0413360595703125,1.5463104248046875,-0.1849365234375
1763368290667185000,6.506184814453125,0.81512451171875,1.572509765625,-0.28680419921875
1763368290677209900,6.5162099609375,0.461181640625,1.6096343994140625,-0.253997802734375
1763368290687234800,6.52623486328125,0.1688079833984375,1.6540069580078125,-0.21282958984375
1763368290697260800,6.5362607421875,-0.127105712890625,1.6634979248046875,-0.18353271484375
1763368290707285800,6.54628564453125,-0.379364013671875,1.5844573974609375,-0.1617889404296875
1763368290717310700,6.556310791015625,-0.40240478515625,1.4384613037109375,-0.248077392578125
1763368290727335700,6.566335693359375,-0.2786712646484375,1.3408355712890625,-0.2814788818359375
1763368290737360600,6.576360595703125,-0.2784576416015625,1.29443359375,-0.1649932861328125
1763368290747386600,6.58638671875,-0.1619110107421875,1.198394775390625,-0.125732421875
1763368290757411800,6.596411865234375,-0.0543670654296875,1.0353240966796875,-0.1033477783203125
1763368290767436800,6.606436767578125,-0.141143798828125,0.942352294921875,-0.11639404296875
1763368290777461800,6.616461669921875,-0.19696044921875,0.917999267578125,-0.1261444091796875
1763368290787486700,6.62648681640625,-0.1458740234375,0.905303955078125,-0.0683135986328125
1763368290797512700,6.6365126953125,0.0229034423828125,0.914520263671875,-0.0538482666015625
1763368290807538000,6.646537841796875,0.184295654296875,0.9128875732421875,-0.04718017578125
1763368290817562600,6.656562744140625,0.201171875,0.9415283203125,-0.0059051513671875
1763368290827587600,6.666587646484375,0.182647705078125,0.923980712890625,-0.019622802734375
1763368290837612500,6.676612548828125,0.1538543701171875,0.8191986083984375,-0.0669708251953125
1763368290847638500,6.686638427734375,0.13812255859375,0.6801605224609375,-0.092529296875
1763368290857663700,6.696663818359375,0.172393798828125,0.53662109375,-0.194183349609375
1763368290867688700,6.706688720703125,0.1261749267578125,0.4351654052734375,-0.2794342041015625
1763368290877713700,6.716713623046875,0.0323333740234375,0.36358642578125,-0.293731689453125
1763368290887738600,6.726738525390625,0.054840087890625,0.2961883544921875,-0.309173583984375
1763368290897764600,6.7367646484375,0.1652984619140625,0.2569732666015625,-0.2924041748046875
1763368290907789800,6.746789794921875,0.3402862548828125,0.2279510498046875,-0.2742156982421875
1763368290917814800,6.756814697265625,0.3876953125,0.237884521484375,-0.29541015625
1763368290927839700,6.76683984375,0.272857666015625,0.2903594970703125,-0.2821502685546875
1763368290937864400,6.776864501953125,0.1852264404296875,0.3521270751953125,-0.260955810546875
1763368290947889700,6.7868896484375,0.202056884765625,0.396759033203125,-0.269683837890625
1763368290957915600,6.79691552734375,0.2836151123046875,0.4122772216796875,-0.2439727783203125
1763368290967940600,6.806940673828125,0.3277740478515625,0.3877410888671875,-0.1963348388671875
1763368290977965600,6.816965576171875,0.298095703125,0.3640594482421875,-0.1607818603515625
1763368290987990500,6.826990478515625,0.2679443359375,0.339019775390625,-0.1389617919921875
1763368290998015700,6.837015625,0.2703399658203125,0.2916107177734375,-0.1189117431640625
1763368291008041700,6.847041748046875,0.3624114990234375,0.2712249755859375,-0.0956878662109375
1763368291018066700,6.857066650390625,0.3935089111328125,0.2731170654296875,-0.08746337890625
1763368291028091600,6.867091552734375,0.4195404052734375,0.2747344970703125,-0.084869384765625
1763368291038116600,6.87711669921875,0.4216766357421875,0.259063720703125,-0.0953369140625
1763368291048141800,6.887141845703125,0.3744049072265625,0.2349853515625,-0.097564697265625
1763368291058167800,6.897167724609375,0.3292236328125,0.23291015625,-0.0767974853515625
1763368291068192800,6.90719287109375,0.3071441650390625,0.239349365234375,-0.0624542236328125
1763368291078217700,6.9172177734375,0.31512451171875,0.24761962890625,-0.0396728515625
1763368291088242700,6.92724267578125,0.391510009765625,0.26483154296875,-0.0164642333984375
1763368291098267600,6.937267578125,1.200958251953125,0.277862548828125,-0.008819580078125
1763368291108294000,6.9472939453125,3.1097869873046875,0.318084716796875,-0.144561767578125
1763368291118318600,6.957318603515625,2.344940185546875,0.8084716796875,-0.2110443115234375
1763368291128343600,6.967343505859375,0.880706787109375,1.5913238525390625,-0.351959228515625
1763368291138368500,6.977368408203125,0.2136077880859375,1.8253631591796875,-0.2979583740234375
1763368291148393700,6.987393798828125,0.575927734375,1.6518707275390625,-0.0185394287109375
1763368291158419700,6.997419677734375,2.1090240478515625,1.2790985107421875,0.12408447265625
1763368291168444700,7.007444580078125,0.0625762939453125,0.888641357421875,-0.264404296875
1763368291178469600,7.0174697265625,-0.6714630126953125,0.5091094970703125,-0.5470733642578125
1763368291188494600,7.02749462890625,1.1357879638671875,0.196929931640625,-0.3614501953125
1763368291198519800,7.037519775390625,0.891632080078125,0.2708282470703125,-0.100677490234375
1763368291208545800,7.0475458984375,0.343658447265625,0.5605316162109375,-0.0778656005859375
1763368291218570800,7.05757080078125,0.602691650390625,0.893280029296875,-0.1821441650390625
1763368291228595700,7.067595703125,0.4062347412109375,1.1731414794921875,-0.427337646484375
1763368291238620700,7.07762060546875,0.5214996337890625,1.3085174560546875,-0.5035552978515625
1763368291248645600,7.087645751953125,0.6811981201171875,1.2621002197265625,-0.4017181396484375
1763368291258671900,7.097671875,0.688140869140625,1.1226654052734375,-0.3021240234375
1763368291268696600,7.107696533203125,0.5780181884765625,0.9827117919921875,-0.3050079345703125
1763368291278721500,7.117721435546875,0.4808502197265625,0.8660430908203125,-0.376007080078125
1763368291288746500,7.12774658203125,0.447479248046875,0.7989501953125,-0.3883514404296875
1763368291298771700,7.137771728515625,0.37713623046875,0.798553466796875,-0.305816650390625
1763368291308797700,7.147797607421875,0.3267059326171875,0.872222900390625,-0.19140625
1763368291318822700,7.15782275390625,0.3135986328125,0.96453857421875,-0.1058502197265625
1763368291328847600,7.16784765625,0.27886962890625,1.0351409912109375,-0.0771026611328125
1763368291338872600,7.17787255859375,0.232940673828125,1.0701141357421875,-0.09368896484375
1763368291348897800,7.187897705078125,0.2179107666015625,1.09686279296875,-0.10272216796875
1763368291358923800,7.197923828125,0.2140350341796875,1.1133270263671875,-0.121612548828125
1763368291368948700,7.20794873046875,0.1919403076171875,1.112823486328125,-0.1236572265625
1763368291378973700,7.2179736328125,0.224639892578125,1.087310791015625,-0.116668701171875
1763368291388998700,7.22799853515625,0.183837890625,1.0465087890625,-0.130096435546875
1763368291399023900,7.23802392578125,0.1145477294921875,1.0267791748046875,-0.12164306640625
1763368291409049900,7.2480498046875,0.051605224609375,1.0343017578125,-0.0594024658203125
1763368291419074800,7.25807470703125,0.0542755126953125,1.0117034912109375,-0.00457763671875
1763368291429099500,7.268099609375,0.137664794921875,0.9727783203125,0.025848388671875
1763368291439124500,7.27812451171875,0.195770263671875,0.9373626708984375,0.02667236328125
1763368291449149700,7.288149658203125,0.207366943359375,0.913299560546875,-0.002471923828125
1763368291459175700,7.29817578125,0.2246551513671875,0.8983001708984375,-0.0399169921875
1763368291469200600,7.30820068359375,0.2099609375,0.8750762939453125,-0.0730743408203125
1763368291479225600,7.3182255859375,0.1616668701171875,0.859619140625,-0.0870513916015625
1763368291489250600,7.32825048828125,0.120025634765625,0.80767822265625,-0.09649658203125
1763368291499275800,7.33827587890625,0.1074066162109375,0.7444610595703125,-0.11962890625
1763368291509300700,7.34830078125,0.1144561767578125,0.7339324951171875,-0.152679443359375
1763368291519326700,7.35832666015625,0.1491546630859375,0.7925262451171875,-0.160186767578125
1763368291529351700,7.3683515625,0.210296630859375,0.8290557861328125,-0.12939453125
1763368291539376600,7.378376708984375,0.273406982421875,0.8670501708984375,-0.0716094970703125
1763368291549401900,7.38840185546875,0.3364410400390625,0.8871612548828125,-0.048065185546875
1763368291559426600,7.398426513671875,0.40362548828125,0.9062347412109375,-0.0658416748046875
1763368291569452800,7.408452880859375,0.41534423828125,0.94635009765625,-0.0650482177734375
1763368291579477500,7.4184775390625,0.37945556640625,0.97296142578125,-0.03863525390625
1763368291589502500,7.42850244140625,0.32794189453125,0.9915924072265625,-0.0103912353515625
1763368291599527700,7.438527587890625,0.25750732421875,1.0147247314453125,0.022918701171875
1763368291609552600,7.448552734375,0.2384033203125,1.0194244384765625,0.03668212890625
1763368291619578600,7.45857861328125,0.224456787109375,1.000030517578125,0.0229949951171875
1763368291629603600,7.468603515625,0.1737518310546875,1.007232666015625,0.0359039306640625
1763368291639628500,7.478628662109375,0.124359130859375,1.0071868896484375,0.0001220703125
1763368291649653800,7.48865380859375,0.0531463623046875,1.0338134765625,-0.0634765625
1763368291659678700,7.4986787109375,0.0365142822265625,1.0611724853515625,-0.091461181640625
1763368291669704700,7.50870458984375,0.05230712890625,1.0507659912109375,-0.0954132080078125
1763368291679729700,7.518729736328125,0.07525634765625,1.02459716796875,-0.08575439453125
1763368291689754600,7.528754638671875,0.0831298828125,0.9999542236328125,-0.056365966796875
1763368291699779800,7.53877978515625,0.069061279296875,0.982879638671875,-0.0595703125
1763368291709804800,7.5488046875,0.0183258056640625,0.978790283203125,-0.08502197265625
1763368291719830800,7.558830810546875,-0.063446044921875,0.969573974609375,-0.09722900390625
1763368291729855700,7.568855712890625,-0.1309967041015625,0.9410400390625,-0.0876922607421875
1763368291739880400,7.57888037109375,-0.1533203125,0.9102325439453125,-0.06549072265625
1763368291749905700,7.58890576171875,-0.127838134765625,0.888214111328125,-0.0613861083984375
1763368291759930600,7.5989306640625,-0.10064697265625,0.885894775390625,-0.06024169921875
1763368291769956600,7.60895654296875,-0.080902099609375,0.8972625732421875,-0.040924072265625
1763368291779981600,7.618981689453125,-0.0620880126953125,0.9149322509765625,-0.007080078125
1763368291790006500,7.629006591796875,-0.0404815673828125,0.9500732421875,-0.005035400390625
1763368291800031700,7.63903173828125,-0.0474395751953125,0.994171142578125,-0.053314208984375
1763368291810056700,7.649056640625,-0.0818634033203125,0.9952239990234375,-0.0975341796875
1763368291820083200,7.659083251953125,-0.0782012939453125,0.9477996826171875,-0.1286163330078125
1763368291830108000,7.66910791015625,-0.0018768310546875,0.903228759765625,-0.1589508056640625
1763368291840132900,7.6791328125,0.084747314453125,0.8950042724609375,-0.183990478515625
1763368291850158000,7.689157958984375,0.14013671875,0.9007568359375,-0.2018280029296875
1763368291860183000,7.69918310546875,0.1586151123046875,0.907257080078125,-0.2066192626953125
1763368291870209000,7.709208984375,0.156829833984375,0.9214324951171875,-0.2038421630859375
1763368291880234000,7.71923388671875,0.11468505859375,0.9335174560546875,-0.19171142578125
1763368291890259000,7.729259033203125,0.0463409423828125,0.9552764892578125,-0.1717376708984375
1763368291900284200,7.7392841796875,-0.0215301513671875,0.9939117431640625,-0.159088134765625
1763368291910309000,7.74930908203125,-0.0876617431640625,1.0407867431640625,-0.1514129638671875
1763368291920335000,7.759335205078125,-0.14019775390625,1.0764007568359375,-0.1066741943359375
1763368291930360000,7.769360107421875,-0.175994873046875,1.1056060791015625,-0.0326080322265625
1763368291940385000,7.779385009765625,-0.191680908203125,1.146209716796875,0.0360260009765625
1763368291950410200,7.78941015625,-0.199676513671875,1.17413330078125,0.0813140869140625
1763368291960435200,7.799435302734375,-0.2040863037109375,1.18115234375,0.0849761962890625
1763368291970461200,7.809461181640625,-0.182708740234375,1.186248779296875,0.0590362548828125
1763368291980486000,7.81948583984375,-0.15020751953125,1.1996002197265625,0.010528564453125
1763368291990510800,7.8295107421875,-0.126800537109375,1.20513916015625,-0.0757293701171875
1763368292000536000,7.8395361328125,-0.1260528564453125,1.1954803466796875,-0.1881561279296875
1763368292010561000,7.84956103515625,-0.1503448486328125,1.1787109375,-0.3017578125
1763368292020587000,7.8595869140625,-0.195465087890625,1.1878662109375,-0.4036712646484375
1763368292030612000,7.869612060546875,-0.2361297607421875,1.2519989013671875,-0.48138427734375
1763368292040637000,7.879636962890625,-0.269073486328125,1.3383941650390625,-0.5343475341796875
1763368292050662100,7.889662109375,-0.296142578125,1.4119720458984375,-0.5326690673828125
1763368292060687000,7.89968701171875,-0.27874755859375,1.437225341796875,-0.4745941162109375
1763368292070713000,7.909713134765625,-0.2007598876953125,1.3786468505859375,-0.3825836181640625
1763368292080738000,7.919738037109375,-0.072998046875,1.3065338134765625,-0.2763671875
1763368292090763000,7.929762939453125,0.066986083984375,1.235198974609375,-0.19091796875
1763368292100788200,7.939788330078125,0.204925537109375,1.168731689453125,-0.1422271728515625
1763368292110813200,7.949813232421875,0.2960052490234375,1.1307373046875,-0.11297607421875
1763368292120838000,7.959837890625,0.2807464599609375,1.1357879638671875,-0.0937042236328125
1763368292130864000,7.969864013671875,0.1871337890625,1.17376708984375,-0.0929107666015625
1763368292140888800,7.979888916015625,0.08697509765625,1.20782470703125,-0.0971832275390625
1763368292150914000,7.9899140625,0.0085296630859375,1.232513427734375,-0.1044158935546875
1763368292160939000,7.99993896484375,-0.0375823974609375,1.2436676025390625,-0.1077423095703125
1763368292170965000,8.009965087890626,-0.0545654296875,1.241058349609375,-0.1079559326171875
1763368292180990000,8.019989990234375,-0.0273284912109375,1.2223052978515625,-0.11041259765625
1763368292191015000,8.030014892578125,0.031158447265625,1.191925048828125,-0.1310882568359375
1763368292201040100,8.0400400390625,0.108123779296875,1.1580963134765625,-0.156158447265625
1763368292211065000,8.050065185546876,0.198974609375,1.107330322265625,-0.1831512451171875
1763368292221090000,8.060090087890625,0.2832489013671875,1.04852294921875,-0.186370849609375
1763368292231116000,8.070115966796875,0.334442138671875,0.97998046875,-0.1951751708984375
1763368292241141000,8.08014111328125,0.35479736328125,0.9264068603515625,-0.2411651611328125
1763368292251166200,8.090166259765626,0.3146209716796875,0.892303466796875,-0.2817535400390625
1763368292261191200,8.100191162109375,0.278778076171875,0.8761444091796875,-0.2754669189453125
1763368292271217200,8.110217041015625,0.235137939453125,0.89031982421875,-0.2601776123046875
1763368292281242000,8.1202421875,0.141845703125,0.9131622314453125,-0.2200927734375
1763368292291266800,8.130266845703124,0.01409912109375,0.908233642578125,-0.17242431640625
1763368292301292000,8.1402919921875,-0.01708984375,0.862701416015625,-0.182861328125
1763368292311317000,8.15031689453125,-0.0037841796875,0.83251953125,-0.152862548828125
1763368292321342000,8.160342041015625,-0.0017547607421875,0.805267333984375,-0.08758544921875
1763368292331368000,8.170367919921874,-0.0047607421875,0.777618408203125,-0.035980224609375
1763368292341393000,8.180392822265626,0.02093505859375,0.7261962890625,-0.059112548828125
1763368292351418000,8.190418212890625,-0.06011962890625,0.683197021484375,-0.0831146240234375
1763368292361443000,8.200443115234375,-0.080841064453125,0.6140594482421875,-0.0854034423828125
1763368292371468000,8.210468017578124,-0.058197021484375,0.6063385009765625,-0.0753173828125
1763368292381494000,8.220493896484374,-0.0937652587890625,0.6087799072265625,-0.0758209228515625
1763368292391519000,8.23051904296875,-0.055755615234375,0.6371612548828125,-0.03765869140625
1763368292401544200,8.240544189453125,-0.0048065185546875,0.6375732421875,-0.01031494140625
1763368292411569200,8.250569091796875,0.02227783203125,0.6541595458984375,-0.0324554443359375
1763368292421594000,8.260593994140624,0.0512847900390625,0.7009124755859375,-0.0619964599609375
1763368292431620000,8.2706201171875,0.042999267578125,0.77593994140625,-0.089508056640625
1763368292441645000,8.28064501953125,0.073699951171875,0.8579864501953125,-0.1249847412109375
1763368292451670000,8.290669921875,0.1171875,0.9113006591796875,-0.1477813720703125
1763368292461695000,8.300695068359374,0.1481781005859375,0.9320831298828125,-0.1775970458984375
1763368292471720000,8.310719970703126,0.1844024658203125,0.9087982177734375,-0.212646484375
1763368292481746000,8.320745849609375,0.1441497802734375,0.9435882568359375,-0.18621826171875
1763368292491771000,8.33077099609375,0.13720703125,1.03131103515625,-0.0831146240234375
1763368292501796000,8.340796142578125,0.208740234375,1.06640625,-0.0537109375
1763368292511821000,8.350821044921876,0.251495361328125,1.0676727294921875,-0.054290771484375
1763368292521846000,8.360845947265625,0.2408294677734375,1.0434417724609375,-0.0685272216796875
1763368292531872000,8.3708720703125,0.209442138671875,1.0138702392578125,-0.0952911376953125
1763368292541897000,8.38089697265625,0.2046356201171875,0.97705078125,-0.129638671875
1763368292551922200,8.390922119140624,0.2084808349609375,0.926910400390625,-0.1635284423828125
1763368292561947100,8.400947021484376,0.2216644287109375,0.866973876953125,-0.19879150390625
1763368292571972000,8.41097216796875,0.2301483154296875,0.814697265625,-0.2300872802734375
1763368292581998000,8.420998046875,0.2231903076171875,0.7686614990234375,-0.2617950439453125
1763368292592023000,8.43102294921875,0.2451934814453125,0.7433013916015625,-0.2828369140625
1763368292602048000,8.441048095703126,0.201507568359375,0.7066497802734375,-0.2850189208984375
1763368292612073000,8.451072998046875,0.1985015869140625,0.6589813232421875,-0.279449462890625
1763368292622098000,8.461097900390625,0.179107666015625,0.6472015380859375,-0.24896240234375
1763368292632124000,8.4711240234375,0.176849365234375,0.6678466796875,-0.229339599609375
1763368292642148900,8.48114892578125,0.1876678466796875,0.6904449462890625,-0.2273101806640625
1763368292652174000,8.491174072265625,0.201507568359375,0.7046356201171875,-0.2166290283203125
1763368292662199000,8.501198974609375,0.215667724609375,0.7116546630859375,-0.2101593017578125
1763368292672224000,8.51122412109375,0.237823486328125,0.715728759765625,-0.2110137939453125
1763368292682250000,8.52125,0.271026611328125,0.7235565185546875,-0.2061920166015625
1763368292692275000,8.53127490234375,0.3046722412109375,0.7274627685546875,-0.1847076416015625
1763368292702300200,8.541300048828125,0.332672119140625,0.737396240234375,-0.169219970703125
1763368292712325000,8.5513251953125,0.3646392822265625,0.765411376953125,-0.1693267822265625
1763368292722350000,8.56135009765625,0.415252685546875,0.806182861328125,-0.1652984619140625
1763368292732376000,8.5713759765625,0.4850311279296875,0.8525238037109375,-0.141021728515625
1763368292742401000,8.581401123046875,0.553680419921875,0.8935089111328125,-0.1204376220703125
1763368292752426200,8.59142626953125,0.6195220947265625,0.921844482421875,-0.1221923828125
1763368292762451000,8.601450927734374,0.659515380859375,0.938323974609375,-0.1523895263671875
1763368292772476000,8.611475830078126,0.6812744140625,0.9413299560546875,-0.214324951171875
1763368292782502000,8.621501953125,0.6755523681640625,0.95330810546875,-0.2690277099609375
1763368292792526800,8.63152685546875,0.65155029296875,0.9811248779296875,-0.2669525146484375
1763368292802552000,8.641552001953125,0.649169921875,0.9908447265625,-0.2074737548828125
1763368292812577000,8.651576904296874,0.6493377685546875,0.9551239013671875,-0.117706298828125
1763368292822602500,8.6616025390625,0.6231689453125,0.9055633544921875,0.002349853515625
1763368292832628500,8.67162841796875,0.607147216796875,0.9446258544921875,0.0684814453125
1763368292842653400,8.6816533203125,0.6547393798828125,1.09228515625,0.0123748779296875
1763368292852678700,8.6916787109375,0.5739593505859375,1.285430908203125,-0.118194580078125
1763368292862703600,8.70170361328125,0.3679046630859375,1.437652587890625,-0.204010009765625
1763368292872728600,8.711728515625,0.3640289306640625,1.4071807861328125,-0.2951812744140625
1763368292882754600,8.721754638671875,0.4449462890625,1.23248291015625,-0.4357452392578125
1763368292892779500,8.731779541015625,0.386749267578125,0.974578857421875,-0.5654296875
1763368292902804700,8.7418046875,0.30438232421875,0.7671966552734375,-0.5231781005859375
1763368292912829700,8.75182958984375,0.074951171875,0.6496429443359375,-0.371612548828125
1763368292922854400,8.7618544921875,-0.3371734619140625,0.5761566162109375,-0.3028717041015625
1763368292932880600,8.771880615234375,-0.4406585693359375,0.5436859130859375,-0.2972412109375
1763368292942905300,8.7819052734375,-0.1593780517578125,0.597412109375,-0.32080078125
1763368292952930600,8.7919306640625,0.1322021484375,0.7607421875,-0.3090667724609375
1763368292962955500,8.80195556640625,0.148101806640625,0.995269775390625,-0.2102508544921875
1763368292972980500,8.81198046875,0.036895751953125,1.126953125,-0.1573944091796875
1763368292983005400,8.82200537109375,-0.019073486328125,1.1771697998046875,-0.1277618408203125
1763368292993031400,8.832031494140624,-0.011871337890625,1.21026611328125,-0.0985565185546875
1763368293003056600,8.842056640625,-0.0103302001953125,1.2270355224609375,-0.0744781494140625
1763368293013081600,8.85208154296875,0.0103759765625,1.2191009521484375,-0.0581207275390625
1763368293023106600,8.8621064453125,0.077117919921875,1.1616973876953125,-0.035736083984375
1763368293033131500,8.872131591796874,0.1342010498046875,1.0464935302734375,-0.0435028076171875
1763368293043157500,8.882157470703126,0.144287109375,0.941070556640625,-0.08953857421875
1763368293053182700,8.8921826171875,0.1297454833984375,0.8979644775390625,-0.1404876708984375
1763368293063207700,8.902207763671875,0.0959625244140625,0.903594970703125,-0.1744537353515625
1763368293073232600,8.912232666015624,0.0478515625,0.9093017578125,-0.2007598876953125
1763368293083257300,8.92225732421875,0.0298004150390625,0.9272918701171875,-0.217926025390625
1763368293093283600,8.93228369140625,0.045623779296875,0.9336395263671875,-0.2365875244140625
1763368293103308500,8.94230859375,0.059326171875,0.928466796875,-0.2525482177734375
1763368293113333500,8.95233349609375,0.08465576171875,0.9412689208984375,-0.2710418701171875
1763368293123358500,8.9623583984375,0.0969085693359375,0.95068359375,-0.2863311767578125
1763368293133383400,8.972383544921875,0.0903472900390625,0.956756591796875,-0.286773681640625
1763368293143409400,8.982409423828125,0.088897705078125,0.9676513671875,-0.2734375
1763368293153434600,8.9924345703125,0.0822906494140625,0.97491455078125,-0.2468109130859375
1763368293163459600,9.00245947265625,0.081512451171875,0.9755096435546875,-0.213623046875
1763368293173484500,9.012484619140626,0.07989501953125,0.976348876953125,-0.177154541015625
1763368293183509500,9.022509521484375,0.0722503662109375,0.982391357421875,-0.1412200927734375
1763368293193535500,9.032535400390625,0.0689239501953125,0.9993133544921875,-0.102203369140625
1763368293203560700,9.042560791015624,0.0665130615234375,1.03009033203125,-0.0652008056640625
1763368293213585700,9.052585693359376,0.0431060791015625,1.05645751953125,-0.03350830078125
1763368293223610600,9.062610595703125,0.007080078125,1.0637054443359375,-0.014739990234375
1763368293233635300,9.07263525390625,-0.024810791015625,1.04852294921875,-0.02130126953125
1763368293243661600,9.08266162109375,-0.0527801513671875,1.0263519287109375,-0.0464019775390625
1763368293253686500,9.0926865234375,-0.0867462158203125,0.9941253662109375,-0.0904998779296875
1763368293263711500,9.10271142578125,-0.1115570068359375,0.9702911376953125,-0.1283111572265625
1763368293273736400,9.112736328125,-0.114959716796875,0.956878662109375,-0.1598663330078125
1763368293283761400,9.122761474609375,-0.1145477294921875,0.949127197265625,-0.1916046142578125
1763368293293787400,9.132787353515624,-0.12518310546875,0.931610107421875,-0.21612548828125
1763368293303812600,9.1428125,-0.12835693359375,0.930633544921875,-0.2278289794921875
1763368293313837600,9.152837646484375,-0.133087158203125,0.93695068359375,-0.2499237060546875
1763368293323862500,9.162862548828125,-0.12872314453125,0.93731689453125,-0.255340576171875
1763368293333887500,9.172887451171874,-0.115386962890625,0.9392852783203125,-0.2472686767578125
1763368293343913500,9.18291357421875,-0.102020263671875,0.9441986083984375,-0.2450408935546875
1763368293353938700,9.192938720703125,-0.0867767333984375,0.9492034912109375,-0.2393798828125
1763368293363963600,9.202963623046875,-0.0673980712890625,0.95123291015625,-0.232696533203125
1763368293373988600,9.212988525390625,-0.061279296875,0.9366455078125,-0.223358154296875
1763368293384013600,9.223013671875,-0.0550079345703125,0.934478759765625,-0.2093353271484375
1763368293394039600,9.23303955078125,-0.0510406494140625,0.94342041015625,-0.183837890625
1763368293404064500,9.243064453125,-0.0483245849609375,0.9556732177734375,-0.160552978515625
1763368293414089500,9.25308935546875,-0.0458984375,0.9638671875,-0.1404571533203125
1763368293424114400,9.263114501953124,-0.0538177490234375,0.96429443359375,-0.1224822998046875
1763368293434139400,9.273139404296876,-0.0645904541015625,0.9683685302734375,-0.109954833984375
1763368293444165400,9.283165283203125,-0.0685882568359375,0.9745025634765625,-0.0972900390625
1763368293454190600,9.293190673828125,-0.064849853515625,0.9788360595703125,-0.092987060546875
1763368293464215600,9.303215576171874,-0.05108642578125,0.971954345703125,-0.11016845703125
1763368293474240500,9.313240478515626,-0.035675048828125,0.9573211669921875,-0.1288909912109375
1763368293484265500,9.323265380859375,-0.0026397705078125,0.950531005859375,-0.139251708984375
1763368293494291500,9.33329150390625,0.021728515625,0.9416656494140625,-0.152923583984375
1763368293504316700,9.343316650390625,0.0318450927734375,0.929290771484375,-0.1673736572265625
1763368293514341600,9.353341552734374,0.0384674072265625,0.9349517822265625,-0.173248291015625
1763368293524366600,9.36336669921875,0.0358428955078125,0.9346923828125,-0.1790008544921875
1763368293534391600,9.3733916015625,0.0261077880859375,0.93145751953125,-0.1839599609375
1763368293544416500,9.38341650390625,0.0238800048828125,0.9375457763671875,-0.1719970703125
1763368293554442800,9.39344287109375,0.0294342041015625,0.949432373046875,-0.153961181640625
1763368293564467500,9.403467529296876,0.0118560791015625,0.9683990478515625,-0.1427764892578125
1763368293574492400,9.413492431640625,-0.0499420166015625,0.9900970458984375,-0.142547607421875
1763368293584517400,9.423517333984375,-0.11468505859375,1.0228271484375,-0.16259765625
1763368293594542600,9.43354248046875,-0.160888671875,1.055877685546875,-0.1997833251953125
1763368293604568600,9.443568603515626,-0.158935546875,1.0599822998046875,-0.2321014404296875
1763368293614593500,9.453593505859375,-0.108001708984375,1.0216217041015625,-0.2285003662109375
1763368293624618500,9.463618408203125,-0.0458526611328125,0.9813232421875,-0.17681884765625
1763368293634643500,9.4736435546875,0.0040283203125,0.9506378173828125,-0.123992919921875
1763368293644668700,9.483668701171876,0.041351318359375,0.9278564453125,-0.084716796875
1763368293654694700,9.493694580078126,0.0696563720703125,0.91546630859375,-0.0519866943359375
1763368293664719600,9.5037197265625,0.0416717529296875,0.8899688720703125,-0.030517578125
1763368293674744600,9.51374462890625,-0.01336669921875,0.8873748779296875,-0.0229949951171875
1763368293684769500,9.52376953125,-0.07269287109375,0.9113311767578125,-0.0262451171875
1763368293694794500,9.53379443359375,-0.1237335205078125,0.9429931640625,-0.031280517578125
1763368293704820700,9.54382080078125,-0.12451171875,0.9937896728515625,0.007110595703125
1763368293714845400,9.553845458984375,-0.119720458984375,1.0306549072265625,0.0609283447265625
1763368293724870400,9.563870361328124,-0.130401611328125,1.0660552978515625,0.1154632568359375
1763368293734895400,9.573895263671876,-0.158905029296875,1.1176910400390625,0.171051025390625
1763368293744920600,9.583920654296875,-0.1887664794921875,1.183990478515625,0.2311553955078125
1763368293754946600,9.593946533203125,-0.2282867431640625,1.2504425048828125,0.285064697265625
1763368293764971500,9.603971435546875,-0.3092803955078125,1.295562744140625,0.3019866943359375
1763368293774996500,9.61399658203125,-0.401031494140625,1.3046722412109375,0.300140380859375
1763368293785021400,9.624021484375,-0.4538116455078125,1.255950927734375,0.269805908203125
1763368293795046700,9.634046630859375,-0.4373931884765625,1.1873931884765625,0.17218017578125
1763368293805072600,9.64407275390625,-0.319091796875,1.1632080078125,-0.011260986328125
1763368293815097600,9.65409765625,-0.2828216552734375,1.0823822021484375,-0.2822418212890625
1763368293825121300,9.664121337890625,-0.26422119140625,1.035400390625,-0.470184326171875
1763368293835146500,9.674146484375,-0.12530517578125,1.06109619140625,-0.546661376953125
1763368293845171500,9.68417138671875,0.0985107421875,1.04998779296875,-0.5771636962890625
1763368293855197400,9.694197509765624,0.447509765625,0.9832763671875,-0.59710693359375
1763368293865222400,9.704222412109376,1.00299072265625,0.9199981689453125,-0.5484466552734375
1763368293875247400,9.714247314453125,0.8909454345703125,0.9344024658203125,-0.355316162109375
1763368293885272600,9.7242724609375,0.4401092529296875,0.986785888671875,-0.1747589111328125
1763368293895297500,9.734297607421874,0.152557373046875,1.0928955078125,0.008331298828125
1763368293905323500,9.744323486328126,-0.039886474609375,1.1611785888671875,0.1201324462890625
1763368293915348200,9.75434814453125,-0.170135498046875,1.191192626953125,0.13897705078125
1763368293925373400,9.76437353515625,-0.2397918701171875,1.1729736328125,0.077880859375
1763368293935398400,9.7743984375,-0.313873291015625,1.15826416015625,0.005462646484375
1763368293945423400,9.78442333984375,-0.3780364990234375,1.1739044189453125,-0.041656494140625
1763368293955448300,9.7944482421875,-0.435516357421875,1.1894683837890625,-0.0795745849609375
1763368293965474300,9.804474365234375,-0.465179443359375,1.187652587890625,-0.1151885986328125
1763368293975499300,9.814499267578125,-0.428985595703125,1.1805267333984375,-0.1287689208984375
1763368293985524500,9.8245244140625,-0.383514404296875,1.1454620361328125,-0.1301727294921875
1763368293995549400,9.834549560546876,-0.31671142578125,1.1155853271484375,-0.1326904296875
1763368294005574400,9.844574462890625,-0.2458038330078125,1.092010498046875,-0.125213623046875
1763368294015600400,9.854600341796875,-0.1647796630859375,1.0780792236328125,-0.102142333984375
1763368294025625300,9.864625244140624,-0.04296875,1.0723724365234375,-0.0531463623046875
1763368294035650600,9.874650634765626,0.0331268310546875,1.056915283203125,0.0034027099609375
1763368294045675500,9.884675537109375,0.0457763671875,1.027191162109375,-0.00933837890625
1763368294055700200,9.8947001953125,0.0492095947265625,1.0062103271484375,-0.0452880859375
1763368294065726500,9.9047265625,0.059173583984375,0.999359130859375,-0.065673828125
1763368294075751400,9.91475146484375,0.0404510498046875,0.99169921875,-0.0739593505859375
1763368294085776400,9.9247763671875,-0.021759033203125,0.9748687744140625,-0.0603485107421875
1763368294095801300,9.93480126953125,-0.058074951171875,0.9509735107421875,-0.0518951416015625
1763368294105826300,9.944826416015625,-0.1143798828125,0.94293212890625,-0.0194549560546875
1763368294115852300,9.954852294921874,-0.180206298828125,0.980560302734375,0.041778564453125
1763368294125877500,9.96487744140625,-0.133087158203125,1.00286865234375,0.0597076416015625
1763368294135902500,9.97490234375,-0.053253173828125,1.0049285888671875,0.06048583984375
1763368294145927400,9.984927490234375,-0.0170135498046875,1.024993896484375,0.047882080078125
1763368294155952400,9.994952392578124,-0.0337066650390625,1.0539703369140625,0.020294189453125
1763368294165978400,10.004978271484376,-0.054290771484375,1.042755126953125,-0.032379150390625
1763368294176003600,10.015003662109375,-0.3212738037109375,1.131011962890625,0.006622314453125
1763368294186028500,10.025028564453125,-0.1852264404296875,1.2798004150390625,0.10614013671875
1763368294196053500,10.035053466796874,0.1390533447265625,1.2784576416015625,0.0504608154296875
1763368294206078500,10.045078369140626,0.14202880859375,1.21270751953125,-0.02459716796875
1763368294216104400,10.0551044921875,0.0985107421875,1.1176605224609375,-0.09942626953125
1763368294226129400,10.06512939453125,0.1096649169921875,1.0280914306640625,-0.17327880859375
1763368294236154400,10.075154296875,0.1571197509765625,0.9596099853515625,-0.2135467529296875
1763368294246179300,10.085179443359374,0.2102203369140625,0.90179443359375,-0.245391845703125
1763368294256204300,10.095204345703126,0.236785888671875,0.8729095458984375,-0.271728515625
1763368294266230300,10.105230224609375,0.219146728515625,0.85528564453125,-0.2797698974609375
1763368294276255500,10.11525537109375,0.2067718505859375,0.8634033203125,-0.2880401611328125
1763368294286280400,10.125280517578124,0.2011260986328125,0.8774871826171875,-0.309906005859375
1763368294296305400,10.135305419921876,0.1853485107421875,0.87139892578125,-0.324676513671875
1763368294306330400,10.145330322265625,0.1943206787109375,0.85577392578125,-0.3446502685546875
1763368294316356400,10.1553564453125,0.200103759765625,0.8214874267578125,-0.3418731689453125
1763368294326381600,10.165381591796875,0.218719482421875,0.7615203857421875,-0.3513031005859375
1763368294336406500,10.175406494140624,0.22119140625,0.7132110595703125,-0.33489990234375
1763368294346431500,10.185431396484375,0.2173919677734375,0.6953277587890625,-0.3257598876953125
1763368294356456400,10.19545654296875,0.235504150390625,0.7009124755859375,-0.3344573974609375
1763368294366482400,10.205482421875,0.2593841552734375,0.71478271484375,-0.3468780517578125
1763368294376507600,10.215507568359374,0.26092529296875,0.7321319580078125,-0.3313140869140625
1763368294386532400,10.225532470703126,0.3006134033203125,0.75732421875,-0.2969970703125
1763368294396557300,10.235557373046875,0.34619140625,0.7723541259765625,-0.235809326171875
1763368294406582300,10.245582275390625,0.3973388671875,0.788299560546875,-0.177215576171875
1763368294416607500,10.255607421875,0.4293060302734375,0.7866668701171875,-0.1573333740234375
1763368294426633500,10.265633544921876,0.405792236328125,0.802520751953125,-0.1143646240234375
1763368294436658400,10.275658447265625,0.3915863037109375,0.8326416015625,-0.039794921875
1763368294446683400,10.285683349609375,0.3939361572265625,0.86175537109375,0.035400390625
1763368294456708400,10.295708251953124,0.41131591796875,0.871490478515625,0.0915069580078125
1763368294466733600,10.305733642578126,0.422332763671875,0.8538360595703125,0.0997314453125
1763368294476759600,10.315759521484376,0.328033447265625,0.829345703125,0.097320556640625
1763368294486784500,10.325784423828125,0.3061370849609375,0.8046417236328125,0.0371856689453125
1763368294496809500,10.3358095703125,0.2718505859375,0.7890625,-0.044586181640625
1763368294506834400,10.34583447265625,0.1778717041015625,0.7926483154296875,-0.1160888671875
1763368294516859400,10.355859375,0.1710205078125,0.8118896484375,-0.16015625
1763368294526885600,10.3658857421875,0.250732421875,0.774169921875,-0.151336669921875
1763368294536910300,10.375910400390625,0.394989013671875,0.6930084228515625,-0.1179046630859375
1763368294546935300,10.385935302734374,0.59747314453125,0.673583984375,-0.090728759765625
1763368294556960300,10.395960205078126,0.662750244140625,0.786834716796875,-0.084442138671875
1763368294566985500,10.4059853515625,0.4417572021484375,1.053558349609375,-0.1051483154296875
1763368294577011500,10.416011474609375,0.3304443359375,1.409637451171875,-0.2238922119140625
1763368294587036400,10.426036376953125,0.859527587890625,1.7955322265625,-0.3996124267578125
1763368294597061400,10.436061279296876,1.1640472412109375,2.0123443603515625,-0.4754791259765625
1763368294607086300,10.44608642578125,0.5330352783203125,1.7736358642578125,-0.5362396240234375
1763368294617111600,10.456111572265625,-0.1734771728515625,1.137725830078125,-0.5438690185546875
1763368294627137500,10.466137451171875,-0.430267333984375,0.5584259033203125,-0.3848876953125
1763368294637162500,10.47616259765625,-0.4780120849609375,0.2752838134765625,-0.332244873046875
1763368294647187500,10.4861875,-0.42578125,0.208282470703125,-0.4264373779296875
1763368294657212400,10.49621240234375,-0.2642822265625,0.311126708984375,-0.5387725830078125
1763368294667237600,10.506237548828125,-0.0176239013671875,0.5488739013671875,-0.572967529296875
1763368294677263600,10.516263671875,0.120452880859375,0.9095916748046875,-0.4032440185546875
1763368294687288600,10.52628857421875,0.02935791015625,1.1954193115234375,-0.16534423828125
1763368294697313300,10.536313232421875,-0.1029815673828125,1.3896026611328125,0.1100921630859375
1763368294707338200,10.546338134765625,-0.0912628173828125,1.51861572265625,0.306671142578125
1763368294717363500,10.556363525390625,-0.005950927734375,1.483306884765625,0.3373260498046875
1763368294727388400,10.566388427734376,-0.0404205322265625,1.376678466796875,0.3707427978515625
1763368294737414400,10.576414306640626,-0.0045928955078125,1.162933349609375,0.2014312744140625
1763368294747439400,10.586439453125,0.120697021484375,0.9281158447265625,-0.037811279296875
1763368294757464300,10.59646435546875,0.2060394287109375,0.7863311767578125,-0.163848876953125
1763368294767489500,10.606489501953124,0.1938018798828125,0.74072265625,-0.2304229736328125
1763368294777514500,10.616514404296876,0.0946502685546875,0.7614898681640625,-0.2602691650390625
1763368294787540500,10.62654052734375,0.01239013671875,0.845611572265625,-0.2371063232421875
1763368294797565400,10.6365654296875,-0.0529022216796875,0.917633056640625,-0.207855224609375
1763368294807590400,10.64659033203125,-0.11187744140625,0.9910888671875,-0.1815185546875
1763368294817616000,10.656615966796876,-0.1616363525390625,1.036651611328125,-0.1815338134765625
1763368294827640800,10.666640869140625,-0.174041748046875,1.0726165771484375,-0.149078369140625
1763368294837666800,10.676666748046875,-0.151214599609375,1.1047821044921875,-0.0935211181640625
1763368294847691800,10.68669189453125,-0.093292236328125,1.154205322265625,-0.022186279296875
1763368294857716700,10.696716796875,0.0147552490234375,1.1834869384765625,0.039642333984375
1763368294867741700,10.70674169921875,0.105743408203125,1.152740478515625,0.061614990234375
1763368294877767000,10.716766845703125,0.1455078125,1.104339599609375,0.0610198974609375
1763368294887793000,10.72679296875,0.1454315185546875,1.0501556396484375,0.045806884765625
1763368294897817900,10.73681787109375,0.1057586669921875,0.985198974609375,-0.004638671875
1763368294907842800,10.7468427734375,0.050445556640625,0.930023193359375,-0.04864501953125
1763368294917867800,10.75686767578125,0.020233154296875,0.8853912353515625,-0.100433349609375
1763368294927892700,10.766892822265625,-0.00689697265625,0.8648834228515625,-0.1609039306640625
1763368294937919000,10.7769189453125,-0.0363922119140625,0.8586578369140625,-0.210113525390625
1763368294947943700,10.786943603515626,-0.064666748046875,0.859283447265625,-0.2619171142578125
1763368294957968600,10.79696875,-0.0875091552734375,0.8636474609375,-0.31365966796875
1763368294967993900,10.806993896484375,-0.0941619873046875,0.873382568359375,-0.3538970947265625
1763368294978018800,10.817018798828125,-0.0831298828125,0.8779144287109375,-0.382781982421875
1763368294988044800,10.827044921875,-0.0411376953125,0.8728790283203125,-0.368865966796875
1763368294998069800,10.83706982421875,0.0549468994140625,0.8885650634765625,-0.3038482666015625
1763368295008094700,10.8470947265625,0.184112548828125,0.931976318359375,-0.2167205810546875
1763368295018120000,10.857119873046875,0.3370361328125,0.9907684326171875,-0.1526336669921875
1763368295028145000,10.867144775390624,0.49554443359375,1.0396881103515625,-0.095611572265625
1763368295038169900,10.877169921875,0.6205902099609375,1.0761260986328125,-0.04388427734375
1763368295048195800,10.88719580078125,0.6667938232421875,1.1224365234375,-0.0099334716796875
1763368295058220800,10.897220703125,0.6536407470703125,1.153533935546875,0.0042572021484375
1763368295068245800,10.907245849609374,0.6145782470703125,1.1375579833984375,0.0287933349609375
1763368295078270700,10.917270751953126,0.5350341796875,1.1031646728515625,0.0396728515625
1763368295088295700,10.927295654296875,0.4319610595703125,1.1213531494140625,0.06390380859375
1763368295098321700,10.93732177734375,0.2985382080078125,1.1797943115234375,0.1153106689453125
1763368295108346600,10.9473466796875,0.1191253662109375,1.2103424072265625,0.168060302734375
1763368295118371800,10.957371826171874,-0.062591552734375,1.20037841796875,0.1836700439453125
1763368295128396800,10.967396728515626,-0.1975250244140625,1.1591033935546875,0.16314697265625
1763368295138421800,10.977421875,-0.193511962890625,1.182373046875,0.1119537353515625
1763368295148447700,10.98744775390625,-0.0093536376953125,1.220672607421875,-0.0794830322265625
1763368295158472700,10.99747265625,0.274688720703125,1.1796112060546875,-0.307037353515625
1763368295168498000,11.007497802734376,0.6912384033203125,1.1460113525390625,-0.4504241943359375
1763368295178523000,11.01752294921875,0.854949951171875,1.161773681640625,-0.4210968017578125
1763368295188547800,11.0275478515625,0.7672271728515625,1.1858367919921875,-0.2988128662109375
1763368295198573800,11.03757373046875,0.640716552734375,1.2401123046875,-0.20489501953125
1763368295208598800,11.047598876953124,0.519500732421875,1.34320068359375,-0.107879638671875
1763368295218624000,11.0576240234375,0.28509521484375,1.4846649169921875,-0.01641845703125
1763368295228649000,11.06764892578125,-0.03765869140625,1.738494873046875,-0.0052642822265625
1763368295238673700,11.077673583984375,-0.29742431640625,2.0102081298828125,0.0879669189453125
1763368295248700000,11.087699951171874,-0.480621337890625,1.92620849609375,0.055206298828125
1763368295258724600,11.097724609375,-0.3829345703125,1.702850341796875,-0.0265045166015625
1763368295268749800,11.107749755859375,-0.221893310546875,1.5404205322265625,0.0052947998046875
1763368295278774800,11.11777490234375,-0.0626678466796875,1.4019012451171875,0.111602783203125
1763368295288799700,11.1277998046875,0.039215087890625,1.42138671875,0.242218017578125
1763368295298824700,11.13782470703125,0.4073028564453125,1.6063079833984375,0.4169769287109375
1763368295308850700,11.1478505859375,0.7075958251953125,1.5992889404296875,0.26959228515625
1763368295318876000,11.1578759765625,0.4510040283203125,1.5789337158203125,0.2007598876953125
1763368295328900900,11.16790087890625,0.1786956787109375,1.540313720703125,0.128387451171875
1763368295338925800,11.17792578125,-0.0013427734375,1.4562835693359375,0.00860595703125
1763368295348950800,11.18795068359375,-0.143218994140625,1.2717742919921875,-0.08441162109375
1763368295358976800,11.197976806640625,-0.1032867431640625,1.0370941162109375,-0.22467041015625
1763368295369002000,11.208001953125,-0.0323028564453125,0.86456298828125,-0.337890625
1763368295379027000,11.21802685546875,-0.0085601806640625,0.708465576171875,-0.3562164306640625
1763368295389051600,11.2280517578125,0.12188720703125,0.633270263671875,-0.3055877685546875
1763368295399076600,11.23807666015625,0.2224884033203125,0.581298828125,-0.2769927978515625
1763368295409102600,11.2481025390625,0.208831787109375,0.4954986572265625,-0.2895660400390625
1763368295419127800,11.2581279296875,0.2390899658203125,0.487640380859375,-0.228240966796875
1763368295429152800,11.26815283203125,0.362060546875,0.544403076171875,-0.19268798828125
1763368295439177700,11.278177734375,0.352020263671875,0.5380096435546875,-0.2183837890625
1763368295449202700,11.28820263671875,0.309661865234375,0.513946533203125,-0.2580108642578125
1763368295459228700,11.298228759765625,0.3124847412109375,0.512603759765625,-0.26861572265625
1763368295469254000,11.30825390625,0.2858734130859375,0.462646484375,-0.3000030517578125
1763368295479278800,11.31827880859375,0.2721710205078125,0.4010467529296875,-0.28961181640625
1763368295489303800,11.3283037109375,0.3428497314453125,0.4066619873046875,-0.26129150390625
1763368295499328800,11.338328857421875,0.382232666015625,0.43536376953125,-0.2592620849609375
1763368295509354800,11.348354736328124,0.29010009765625,0.4135894775390625,-0.2238922119140625
1763368295519380000,11.3583798828125,0.26251220703125,0.3927001953125,-0.1450958251953125
1763368295529405000,11.368405029296875,0.3592681884765625,0.3937530517578125,-0.064788818359375
1763368295539430000,11.378429931640625,0.361602783203125,0.3227996826171875,-0.0343170166015625
1763368295549454600,11.38845458984375,0.37701416015625,0.2790679931640625,-0.0304107666015625
1763368295559479800,11.398479736328126,0.412933349609375,0.2694091796875,-0.05413818359375
1763368295569505800,11.408505859375,0.419830322265625,0.2484130859375,-0.0826568603515625
1763368295579530800,11.41853076171875,0.4120941162109375,0.2299346923828125,-0.0902557373046875
1763368295589555700,11.4285556640625,0.4009552001953125,0.2188262939453125,-0.0745849609375
1763368295599580700,11.43858056640625,0.4131622314453125,0.2350311279296875,-0.05279541015625
1763368295609606000,11.44860595703125,0.457489013671875,0.2635498046875,-0.04864501953125
1763368295619631900,11.4586318359375,0.5308074951171875,0.2906341552734375,-0.0408782958984375
1763368295629656800,11.46865673828125,0.830078125,0.321868896484375,-0.0075225830078125
1763368295639681800,11.478681884765624,2.31817626953125,0.34893798828125,-0.0237884521484375
1763368295649706800,11.488706787109376,3.0291290283203125,0.607177734375,-0.129852294921875
1763368295659732000,11.49873193359375,0.649810791015625,1.3385162353515625,-0.2052459716796875
1763368295669758000,11.508758056640625,-0.3979644775390625,1.597381591796875,-0.5584869384765625
1763368295679783000,11.518782958984374,0.1790618896484375,1.505126953125,-0.3227996826171875
1763368295689808000,11.528807861328126,1.45074462890625,1.203582763671875,-0.001953125
1763368295699832600,11.53883251953125,0.86065673828125,0.82159423828125,-0.4855804443359375
1763368295709857800,11.54885791015625,0.0966033935546875,0.601165771484375,-0.9932098388671875
1763368295719883800,11.5588837890625,0.5989532470703125,0.422210693359375,-0.61419677734375
1763368295729908700,11.56890869140625,0.8010101318359375,0.4319610595703125,-0.1140289306640625
1763368295739933700,11.57893359375,0.4290618896484375,0.6619873046875,-0.219482421875
1763368295749958700,11.588958740234375,0.67083740234375,0.9341888427734375,-0.4031982421875
1763368295759983900,11.59898388671875,0.5727081298828125,1.1436767578125,-0.437103271484375
1763368295770008800,11.6090087890625,0.4405364990234375,1.3200836181640625,-0.249542236328125
1763368295780034800,11.619034912109376,0.52984619140625,1.4080047607421875,-0.124359130859375
1763368295790059800,11.629059814453125,0.5807342529296875,1.3585662841796875,-0.1202850341796875
1763368295800084700,11.639084716796875,0.701263427734375,1.1964263916015625,-0.091064453125
1763368295810110000,11.64910986328125,0.6908416748046875,1.009063720703125,-0.0715484619140625
1763368295820136200,11.65913623046875,0.5975494384765625,0.846435546875,-0.10760498046875
1763368295830162200,11.669162109375,0.5823516845703125,0.709686279296875,-0.1512451171875
1763368295840187100,11.679187255859375,0.5456695556640625,0.6386566162109375,-0.14801025390625
1763368295850212000,11.689212158203125,0.453399658203125,0.6384124755859375,-0.1109771728515625
1763368295860237000,11.699237060546874,0.3890380859375,0.7006378173828125,-0.067230224609375
1763368295870262300,11.70926220703125,0.380279541015625,0.7937164306640625,-0.058685302734375
1763368295880288000,11.7192880859375,0.3282623291015625,0.902557373046875,-0.061065673828125
1763368295890313200,11.729313232421875,0.2938690185546875,1.01568603515625,-0.073333740234375
1763368295900338200,11.739338134765624,0.228607177734375,1.1394805908203125,-0.1100921630859375
1763368295910363100,11.749363037109376,0.1831817626953125,1.20855712890625,-0.1775970458984375
1763368295920388000,11.75938818359375,0.188720703125,1.2092132568359375,-0.2351531982421875
1763368295930414000,11.7694140625,0.1402435302734375,1.1564178466796875,-0.235260009765625
1763368295940439300,11.779439208984375,0.1427459716796875,1.100677490234375,-0.1970062255859375
1763368295950464300,11.78946435546875,0.1160125732421875,1.078887939453125,-0.1856536865234375
1763368295960489200,11.7994892578125,0.0916290283203125,1.0583953857421875,-0.198638916015625
1763368295970514200,11.80951416015625,0.083892822265625,1.019866943359375,-0.2269439697265625
1763368295980539100,11.8195390625,0.0610809326171875,0.97955322265625,-0.2312164306640625
1763368295990565000,11.829565185546874,0.0376739501953125,0.9405364990234375,-0.2264556884765625
1763368296000590000,11.839590087890626,-0.0035247802734375,0.9337158203125,-0.1411590576171875
1763368296010615000,11.849614990234375,-0.02142333984375,0.94219970703125,-0.0697479248046875
1763368296020640300,11.85964013671875,-0.0167236328125,0.975982666015625,0.013885498046875
1763368296030665200,11.869665283203124,0.0528564453125,0.9904632568359375,0.0519866943359375
1763368296040691200,11.879691162109374,0.1474151611328125,0.999755859375,0.0430755615234375
1763368296050716200,11.889716064453125,0.3393402099609375,1.0106353759765625,0.0526580810546875
1763368296060741000,11.8997412109375,0.4735260009765625,0.98284912109375,0.022918701171875
1763368296070766300,11.909766357421875,0.4643707275390625,0.961639404296875,-0.0195159912109375
1763368296080791300,11.919791259765624,0.39910888671875,0.9029083251953125,-0.046600341796875
1763368296090817300,11.9298173828125,0.3411407470703125,0.8264007568359375,-0.04931640625
1763368296100842200,11.93984228515625,0.2816162109375,0.7671051025390625,-0.0497894287109375
1763368296110867200,11.9498671875,0.1561279296875,0.7518463134765625,0.0054473876953125
1763368296120892200,11.95989208984375,0.1031646728515625,0.756744384765625,0.065216064453125
1763368296130917000,11.969917236328126,0.1869964599609375,0.727294921875,0.12139892578125
1763368296140943000,11.979943115234375,0.2859649658203125,0.685546875,0.1460113525390625
1763368296150968000,11.989968017578125,0.2702789306640625,0.6836090087890625,0.152374267578125
1763368296160993000,11.999992919921874,0.0597991943359375,0.7208404541015625,0.1943206787109375
1763368296171018200,12.010018310546876,-0.2818603515625,0.8088226318359375,0.3199462890625
1763368296181043200,12.020043212890625,-0.637298583984375,0.8867950439453125,0.3741607666015625
1763368296191069200,12.030069091796875,-0.774200439453125,0.9100494384765625,0.100494384765625
1763368296201094100,12.04009423828125,-0.7025909423828125,0.9251708984375,-0.202392578125
1763368296211119000,12.050119140625,-0.40826416015625,1.02056884765625,-0.390533447265625
1763368296221144300,12.060144287109376,-0.0492401123046875,1.0802154541015625,-0.5256195068359375
1763368296231169300,12.070169189453125,0.192138671875,1.207977294921875,-0.3625030517578125
1763368296241195300,12.0801953125,0.41461181640625,1.320526123046875,-0.1554412841796875
1763368296251220200,12.09022021484375,0.985015869140625,1.4832916259765625,0.036834716796875
1763368296261245200,12.1002451171875,1.8513946533203125,1.6269073486328125,0.280029296875
1763368296271270400,12.1102705078125,1.9757080078125,1.5071563720703125,0.370391845703125
1763368296281295000,12.120295166015625,1.1270904541015625,1.1937408447265625,0.1779022216796875
1763368296291321300,12.1303212890625,0.3790130615234375,1.0296173095703125,-0.03265380859375
1763368296301346000,12.140345947265626,-0.177978515625,0.9689483642578125,-0.1921539306640625
1763368296311371000,12.15037109375,-0.6204376220703125,0.92919921875,-0.3837738037109375
1763368296321396200,12.160396240234375,-0.9613037109375,0.8513031005859375,-0.53289794921875
1763368296331421200,12.170421142578125,-1.136810302734375,0.699676513671875,-0.57012939453125
1763368296341447200,12.180447265625,-1.1968536376953125,0.5500335693359375,-0.485260009765625
1763368296351472000,12.19047216796875,-1.133026123046875,0.5037689208984375,-0.3397216796875
1763368296361497000,12.2004970703125,-1.0230865478515625,0.614044189453125,-0.18475341796875
1763368296371522300,12.210522216796875,-0.84466552734375,0.7713470458984375,-0.112762451171875
1763368296381547300,12.22054736328125,-0.671112060546875,0.9160308837890625,-0.1587066650390625
1763368296391572200,12.230572265625,-0.46337890625,1.1218414306640625,-0.220458984375
1763368296401598200,12.24059814453125,-0.251953125,1.315399169921875,-0.31982421875
1763368296411623200,12.250623046875,-0.0131378173828125,1.3855438232421875,-0.3581695556640625
1763368296421648400,12.2606484375,0.3388671875,1.3427581787109375,-0.275115966796875
1763368296431673000,12.270673095703126,0.873199462890625,1.34185791015625,-0.1482086181640625
1763368296441698000,12.280697998046875,1.150726318359375,1.3736419677734375,-0.0071868896484375
1763368296451724000,12.29072412109375,0.8702239990234375,1.4252777099609375,0.124267578125
1763368296461749000,12.3007490234375,0.415740966796875,1.4957122802734375,0.1498260498046875
1763368296471774200,12.310774169921874,0.0152435302734375,1.539520263671875,0.0784149169921875
1763368296481799200,12.320799072265626,-0.2786712646484375,1.4832916259765625,-0.064300537109375
1763368296491824000,12.33082421875,-0.4065704345703125,1.3736419677734375,-0.249664306640625
1763368296501850000,12.34085009765625,-0.4326019287109375,1.2890167236328125,-0.3907012939453125
1763368296511875000,12.350875,-0.4061126708984375,1.1822357177734375,-0.4429931640625
1763368296521900300,12.360900390625,-0.284820556640625,1.1328582763671875,-0.373016357421875
1763368296531925200,12.37092529296875,-0.1322021484375,1.14013671875,-0.2525482177734375
1763368296541950200,12.3809501953125,0.04034423828125,1.151611328125,-0.1814117431640625
1763368296551976200,12.39097607421875,0.2522430419921875,1.2138671875,-0.148712158203125
1763368296562001200,12.401001220703124,0.493408203125,1.322967529296875,-0.1386260986328125
1763368296572026400,12.4110263671875,0.74151611328125,1.428466796875,-0.1418304443359375
1763368296582051300,12.42105126953125,1.14056396484375,1.540740966796875,-0.130279541015625
1763368296592076000,12.431075927734375,1.4901885986328125,1.62060546875,-0.1172332763671875
1763368296602102000,12.44110205078125,1.442535400390625,1.6005401611328125,-0.0799102783203125
1763368296612127000,12.451126953125,0.968536376953125,1.4659271240234375,-0.0733184814453125
1763368296622152200,12.461152099609375,0.5160675048828125,1.3118743896484375,-0.347747802734375
1763368296632177200,12.47117724609375,0.3229827880859375,1.3275604248046875,-0.46392822265625
1763368296642202000,12.4812021484375,0.296661376953125,1.5973358154296875,-0.282318115234375
1763368296652228000,12.49122802734375,0.01470947265625,1.686614990234375,-0.3421783447265625
1763368296662253000,12.501253173828125,-0.3430938720703125,1.51763916015625,-0.5113525390625
1763368296672278300,12.5112783203125,-0.408172607421875,1.3741912841796875,-0.5038909912109375
1763368296682303200,12.52130322265625,-0.3816986083984375,1.2354888916015625,-0.448272705078125
1763368296692328200,12.531328125,-0.3929290771484375,1.191619873046875,-0.2998504638671875
1763368296702354200,12.541354248046876,-0.331390380859375,1.16522216796875,-0.2308349609375
1763368296712379100,12.551379150390625,-0.1000823974609375,1.16278076171875,-0.154571533203125
1763368296722404400,12.561404296875,0.3623504638671875,1.2039794921875,0.006011962890625
1763368296732429300,12.57142919921875,0.7686614990234375,1.2758026123046875,0.1079864501953125
1763368296742454000,12.5814541015625,0.9184112548828125,1.3523712158203125,0.1943511962890625
1763368296752480300,12.591480224609375,0.659759521484375,1.3284912109375,0.1362762451171875
1763368296762505000,12.6015048828125,0.3309173583984375,1.25445556640625,0.08355712890625
1763368296772530200,12.6115302734375,-0.1305389404296875,1.12115478515625,0.11981201171875
1763368296782555100,12.62155517578125,-0.2510986328125,0.866546630859375,0.1969146728515625
1763368296792580000,12.631580078125,0.04974365234375,0.7530059814453125,-0.270538330078125
1763368296802606000,12.641606201171875,0.1256256103515625,0.7004852294921875,-0.468109130859375
1763368296812631000,12.651631103515625,0.178497314453125,0.6746826171875,-0.29876708984375
1763368296822654700,12.66165478515625,0.3999786376953125,0.6519317626953125,-0.2767181396484375
1763368296832679700,12.6716796875,0.4943695068359375,0.6122283935546875,-0.236785888671875
1763368296842705000,12.681704833984375,0.320068359375,0.5836334228515625,-0.273101806640625
1763368296852730600,12.691730712890624,0.2717132568359375,0.6748199462890625,-0.1694183349609375
1763368296862755800,12.701755859375,0.2165374755859375,0.6343231201171875,-0.137939453125
1763368296872780800,12.71178076171875,0.3010711669921875,0.5710296630859375,-0.185882568359375
1763368296882805800,12.7218056640625,0.324920654296875,0.4417724609375,-0.17645263671875
1763368296892831000,12.7318310546875,0.350830078125,0.3597259521484375,-0.167999267578125
1763368296902856700,12.741856689453124,0.3258056640625,0.3111419677734375,-0.2182769775390625
1763368296912882000,12.7518818359375,0.2706756591796875,0.2662200927734375,-0.2417449951171875
1763368296922907000,12.761906982421875,0.350799560546875,0.268096923828125,-0.2364044189453125
1763368296932931800,12.771931884765625,0.3683929443359375,0.261627197265625,-0.275421142578125
1763368296942956800,12.781956787109374,0.2132720947265625,0.221649169921875,-0.249359130859375
1763368296952982800,12.791982666015626,0.2484130859375,0.189666748046875,-0.2095489501953125
1763368296963007700,12.8020078125,0.3038787841796875,0.1636962890625,-0.1435089111328125
1763368296973032700,12.81203271484375,0.3474578857421875,0.1342926025390625,-0.1027374267578125
1763368296983057700,12.8220576171875,0.2808074951171875,0.085601806640625,-0.10516357421875
1763368296993083000,12.832082763671876,0.3192901611328125,0.0346832275390625,-0.083038330078125
1763368297003108900,12.84210888671875,0.396453857421875,0.018707275390625,-0.0477447509765625
1763368297013133800,12.8521337890625,0.432403564453125,-0.0321502685546875,-0.0467376708984375
1763368297023158800,12.86215869140625,0.4482421875,-0.0391387939453125,-0.0768585205078125
1763368297033183700,12.872183837890624,0.3906097412109375,-0.000152587890625,-0.1221466064453125
1763368297043209000,12.882208984375,0.3692474365234375,0.0305633544921875,-0.112030029296875
1763368297053234700,12.892234619140625,0.410552978515625,0.0586700439453125,-0.085296630859375
1763368297063260000,12.902260009765625,0.44482421875,0.0746002197265625,-0.0549163818359375
1763368297073284900,12.912284912109374,0.594146728515625,0.009307861328125,-0.0890960693359375
1763368297083309800,12.922309814453126,1.0323333740234375,-0.1457061767578125,-0.2412872314453125
1763368297093334800,12.932334716796875,1.468017578125,-0.1347198486328125,-0.3538665771484375
1763368297103360800,12.94236083984375,1.409576416015625,0.146453857421875,-0.331573486328125
1763368297113385700,12.9523857421875,1.057159423828125,0.36468505859375,-0.267486572265625
1763368297123410700,12.96241064453125,0.8787384033203125,0.39984130859375,-0.2183990478515625
1763368297133435600,12.972435546875,0.9603271484375,0.2372589111328125,-0.2752532958984375
1763368297143460900,12.9824609375,1.308074951171875,0.2446136474609375,-0.2421417236328125
1763368297153486800,12.99248681640625,1.4915008544921875,0.3222198486328125,-0.204498291015625
1763368297163511800,13.00251171875,1.1136016845703125,0.2152557373046875,-0.2383270263671875
1763368297173536800,13.012536865234376,0.7245635986328125,0.0886383056640625,-0.1759796142578125
1763368297183561700,13.022561767578125,0.9076690673828125,-0.0524749755859375,-0.3590087890625
1763368297193587000,13.0325869140625,1.144989013671875,-0.0138092041015625,-0.485595703125
1763368297203613000,13.042613037109374,1.2194671630859375,0.1409912109375,-0.4116973876953125
1763368297213638000,13.052637939453126,1.106414794921875,0.1847686767578125,-0.4539642333984375
1763368297223662800,13.062662841796875,1.0742340087890625,0.1932373046875,-0.4863739013671875
1763368297233687800,13.072687744140625,1.2142333984375,0.3066253662109375,-0.3846588134765625
