time,seconds_elapsed,z,y,x
1763368284237298400,0.07629833984375,-0.17782091119289398,-0.4116282057628035,0.004868295589531771
1763368284247323400,0.086323486328125,-0.07760054155290126,-0.30111294434070585,0.04782167659059632
1763368284257348400,0.096348388671875,0.20903262653648852,0.21903847224414347,0.3041984527332708
1763368284267373300,0.106373291015625,0.06304536197781563,0.8801716001853346,0.4443740718711167
1763368284277398300,0.116398193359375,-0.2791068642377853,1.1038453310146927,-0.142655014863424
1763368284287423500,0.126423583984375,-0.29593349587619305,0.8897326247349381,-1.16170306122154
1763368284297448400,0.136448486328125,0.26140637237429615,0.7063976262956857,-2.05557234736979
1763368284307473400,0.146473388671875,1.1259107400894164,0.8456275255486368,-2.371948619554937
1763368284317498400,0.156498291015625,1.8953952294170855,1.5220242735952139,-1.8826029678612946
1763368284327523600,0.166523681640625,2.2757465456455943,2.2263637983173132,-1.1554113406661897
1763368284337549600,0.176549560546875,2.225817270350456,1.9090233572751283,-1.0386923292331396
1763368284347574500,0.186574462890625,2.315582296949625,1.4928642300844193,-1.1144104180403054
1763368284357599500,0.196599609375,3.255608061856031,1.7782897759497165,-0.5511725047271698
1763368284367624400,0.20662451171875,3.8874955138295886,3.009983195981383,0.5882439789496362
1763368284377649400,0.2166494140625,4.186203150594234,3.9846383757203814,1.005799017478153
1763368284387674400,0.22667431640625,4.56846351531446,3.9648727680206295,0.2115986045669764
1763368284397699300,0.23669921875,4.352801241505146,3.081988109484315,-0.1771729686781764
1763368284407724300,0.246724365234375,3.99618560565114,2.032391378268599,-0.570770135448873
1763368284417749500,0.25674951171875,3.2734891709834337,1.0495160671949386,-1.39071610725224
1763368284427775500,0.266775390625,3.0255905149579045,0.18655483726859093,-2.3155741136431693
1763368284437800400,0.276800537109375,4.050891009306907,0.14042846138775347,-2.078299435223639
1763368284447825400,0.286825439453125,4.9470712027460335,0.9660890114456414,-1.2850399564243853
1763368284457850400,0.296850341796875,5.321149430054426,1.7032301510512828,-0.9900174379132688
1763368284467875600,0.30687548828125,5.377616582685708,2.1021073040515184,-1.1458290541328489
1763368284477900500,0.316900634765625,4.967617731690407,2.483134327584505,-1.2852213043406604
1763368284487925500,0.326925537109375,4.896023152554035,2.5008339426651593,-0.8947605358995496
1763368284497950200,0.3369501953125,4.353271197104454,1.8646596071526407,-1.2192704301796853
1763368284507975400,0.346975341796875,2.4394255342394113,0.21177081932872532,-2.8390117122918364
1763368284518001400,0.35700146484375,1.5705705700993537,-0.979003145815432,-3.3926313909754153
1763368284528026400,0.3670263671875,1.7748861049860716,-1.2668281540378927,-3.2563369606524706
1763368284538051300,0.37705126953125,1.8640888215273617,-0.7385238261356949,-3.373460242037475
1763368284548076300,0.387076171875,1.8982295760601757,0.38229163664132354,-3.477365437670052
1763368284558101500,0.3971015625,0.9546382276266813,1.8944217082098125,-2.921599102346599
1763368284568126500,0.40712646484375,-0.10580722986161709,3.4497020624577996,-2.5806577132254835
1763368284578151400,0.4171513671875,-0.19302315649986265,4.1688276529014106,-2.810793041284382
1763368284588176400,0.42717626953125,-0.6696528267443179,3.8115620287060734,-2.8981910464912652
1763368284598201600,0.43720166015625,-0.37204584469795227,2.778497330096364,-3.004886749625206
1763368284608227600,0.4472275390625,0.4956009126961231,2.2541186512053013,-1.968120273888111
1763368284618252500,0.45725244140625,1.5314204629719257,2.5380109961539508,0.2999123363792896
1763368284628277200,0.46727734375,1.477481952035427,3.2579967105582353,2.5491420464992522
1763368284638302200,0.47730224609375,0.3657867843031883,4.184341448375583,3.882907601517439
1763368284648327400,0.487327392578125,-1.1383096184134482,4.618429615488648,4.5792602191388605
1763368284658352400,0.497352294921875,-2.248281615614891,3.809330616392195,5.087582081720233
1763368284668377300,0.50737744140625,-2.593223180288076,2.664004397214949,5.077368146219849
1763368284678402300,0.51740234375,-2.639761059579253,1.6584177803784608,4.735456743022799
1763368284688428300,0.52742822265625,-2.737760246038437,0.7687897850617766,4.008646443295478
1763368284698453500,0.53745361328125,-2.5457734468489885,0.37540713782459495,2.99771700412631
1763368284708478500,0.547478515625,-2.229664885689318,0.45559360421746964,2.1089514708578587
1763368284718503400,0.55750341796875,-1.8154802734419702,0.716769236575812,1.8567390432864426
1763368284728528400,0.5675283203125,-1.2870473507240414,1.0496182123951614,2.345582882937789
1763368284738553600,0.5775537109375,-1.0102858805686235,1.0866064653135836,3.6369548188626766
1763368284748578300,0.587578369140625,-0.9129869513332843,0.7880613256342709,4.9633787789463994
1763368284758603300,0.597603271484375,-0.7467386967733501,0.6108114923276007,6.263526142001152
1763368284768628500,0.60762841796875,-0.47675797279924154,0.5594594907529652,7.303999071040749
1763368284778654500,0.617654541015625,-0.3887256152115762,0.5443133595474065,7.263252634632587
1763368284788679400,0.627679443359375,-0.40195290718376636,0.4180861497305333,6.035223582327365
1763368284798704400,0.637704345703125,-0.6259381881803274,0.1034830246977508,4.146879440465569
1763368284808729300,0.647729248046875,-0.8265975386470555,-0.42655543352067465,2.204552364003658
1763368284818753500,0.65775341796875,-1.070173582233116,-0.46113063394799825,1.4432920976638792
1763368284828778500,0.667778564453125,-0.7605909157108515,0.10512231633737683,1.9501070628136394
1763368284838803200,0.67780322265625,0.17255553801059723,0.5415048049326986,2.7549989656090736
1763368284848828400,0.687828369140625,1.460118729302287,0.6512791117943822,3.8282723404884336
1763368284858854400,0.6978544921875,2.8250317022562026,0.7151490880280733,4.90328642155528
1763368284868879400,0.70787939453125,3.521230006098747,0.2680142462067306,4.872819387099146
1763368284878904300,0.717904296875,3.576565524351597,-0.6877049815896898,3.6829455856651068
1763368284888929300,0.72792919921875,3.2500679633855816,-1.5465239240795372,2.294341356000304
1763368284898954500,0.73795458984375,2.3670681540369984,-1.7312499384857714,1.923181061965227
1763368284908979500,0.7479794921875,1.1122422802209853,-1.240889118400216,2.7494769873172045
1763368284919004400,0.75800439453125,0.30966333054304124,-0.7794846359468997,4.087601322066783
1763368284929029400,0.768029296875,-0.12960954573154448,-0.5755761474911123,4.694757652887701
1763368284939054600,0.7780546875,-0.6139256788253784,-0.645944911159575,4.03117333240211
1763368284949080600,0.78808056640625,-1.268123746806383,-1.1325975243769586,2.482294954150915
1763368284959105500,0.79810546875,-1.5192004483461379,-1.7645647635884583,0.646662996301055
1763368284969130500,0.808130615234375,-1.6814193012595176,-1.8662575438685713,-0.6502987224549055
1763368284979155200,0.8181552734375,-1.6645429852604865,-1.544884924700856,-1.1862982810348273
1763368284989180400,0.828180419921875,-1.3885422703444956,-1.1539113844320177,-1.0184393764078616
1763368284999205400,0.838205322265625,-1.9602315664649008,-0.6927374958641827,-0.6189046362817288
1763368285009230300,0.848230224609375,-2.1681220372289416,-1.130491199747473,-0.6623848815679549
1763368285019255300,0.85825537109375,-1.1302280187666416,-1.957155081629008,-1.075123971182108
1763368285029281300,0.86828125,0.04333412394695915,-1.7970431378670035,-1.553897083196044
1763368285039306500,0.878306396484375,0.5427770898908376,-1.7026783623874187,-1.6944705060124396
1763368285049331500,0.88833154296875,0.5183785616934299,-1.5920434201084077,-1.5096481916248798
1763368285059356400,0.8983564453125,-0.54368660595119,-1.5086036510080099,-1.321125269153714
1763368285069381400,0.90838134765625,-1.4794541288912295,-1.6711605037041009,-0.9590192191898822
1763368285079406600,0.918406494140625,-2.0646102248281237,-1.6085653697118163,-0.6147855105251073
1763368285089431600,0.928431640625,-2.6160662957370278,-1.765610327118635,-0.6187579212874174
1763368285099456300,0.938456298828125,-2.3311241494745016,-2.265658282351494,-0.6071914021342992
1763368285109482500,0.948482421875,-1.1534265235245227,-2.4190692671701313,-0.4136450985431671
1763368285119507200,0.958507080078125,-0.11272621546983719,-2.4686653649881483,-0.11841887415349482
1763368285129532400,0.968532470703125,0.8543266725718974,-2.38933317733705,0.13855682229697702
1763368285139557400,0.978557373046875,1.543713104442507,-2.299040181341022,0.014862053567171097
1763368285149582300,0.988582275390625,1.7534052178010344,-2.2643932308517396,-0.28875965872406956
1763368285159607300,0.998607177734375,1.5397309029385446,-1.9942773361906407,-0.5468325027614832
1763368285169632500,1.008632568359375,0.9009203737035393,-1.6381266874998808,-0.7590829223006963
1763368285179657500,1.018657470703125,-0.8439128305852412,-1.4131838135175405,-0.653669660192728
1763368285189682400,1.028682373046875,-4.222878392040729,-1.6250366120412945,-0.11915361816883087
1763368285199708400,1.03870849609375,-4.33455305263102,-1.4834579577051101,0.06351122592389583
1763368285209733400,1.0487333984375,-0.6412769193485379,-1.068572430646792,-0.7061649865835905
1763368285219758600,1.058758544921875,4.107088697347045,-0.5099618848733604,-1.7520476657122372
1763368285229783300,1.068783203125,5.722338367128372,-0.4379954767499119,-2.6840929532587525
1763368285239808300,1.078808349609375,4.615049325400591,-1.0834046005323528,-2.9938457156509157
1763368285249833500,1.08883349609375,2.932724015212059,-1.5771240833960474,-3.1871120332568883
1763368285259858400,1.0988583984375,2.0097800257489085,-1.5749530229672788,-3.358665116226673
1763368285269883400,1.10888330078125,1.3193907004460692,-1.0901148387607187,-3.0158085411339997
1763368285279909400,1.118909423828125,0.08089899857640266,-0.23221746809519825,-2.089966199880838
1763368285289934300,1.128934326171875,-1.4019149621367453,0.5314878533091396,-0.5802765072017908
1763368285299959300,1.138959228515625,-2.566556707158685,1.113475913669169,1.5108926387280226
1763368285309984500,1.148984619140625,-3.3555741644740102,1.4581677413649856,3.734773388057947
1763368285320009500,1.159009521484375,-3.958308879460394,1.7238319173142314,5.4440241145730015
1763368285330034400,1.169034423828125,-3.8862504822045563,1.7705771557457743,6.528420941013097
1763368285340059400,1.179059326171875,-3.118189595939219,1.3867645931474863,6.875045344206691
1763368285350084400,1.18908447265625,-1.9485700625047087,0.5615205149360001,6.583084259092807
1763368285360109300,1.199109375,-1.0630711298167705,0.10615399747267365,5.940443942436575
1763368285370135300,1.20913525390625,-1.3011550787925719,0.7480209916688502,5.259862309920788
1763368285380160300,1.21916015625,-3.263195740506053,2.034448603059351,4.615315867382288
1763368285390185500,1.229185546875,-3.61729091797173,2.539603233781457,4.252377458247542
1763368285400210400,1.23921044921875,-1.8266998788535593,1.7364323095597325,4.273970865896344
1763368285410235400,1.2492353515625,-2.609591254504025,1.391221718686819,4.202338292837143
1763368285420260400,1.25926025390625,-1.7938006488144396,1.1441903470151125,4.554981517928838
1763368285430285600,1.26928564453125,-0.3888397431105375,1.010144280140847,4.973878545650839
1763368285440311600,1.2793115234375,-0.17113573434054852,2.0142709074273704,4.536704687482119
1763368285450336500,1.28933642578125,1.9456977219387888,3.3247283598333595,4.689453701260685
1763368285460361500,1.299361572265625,2.128491014716774,4.216635113736987,4.404666453298926
1763368285470386400,1.309386474609375,2.3739658045962453,3.069361267623305,3.550719135433435
1763368285480411600,1.31941162109375,1.5423755722284316,-0.12160115745142101,3.2777024047642946
1763368285490436400,1.329436279296875,-2.1600252400130033,-1.5823358266949652,2.3358663755655287
1763368285500461300,1.33946142578125,-3.8420904379606244,-1.1596601572170853,0.602587123209238
1763368285510486300,1.349486328125,-5.138281172344088,-0.7296569213300943,-0.655292292958498
1763368285520512300,1.35951220703125,-1.5627496672153471,-0.19650135400444269,-0.5631587836623192
1763368285530537500,1.369537353515625,2.5492425842642783,0.08018325152248143,0.34862405257821083
1763368285540562400,1.3795625,3.4956484055966137,-0.6156836284086108,0.47932080902457236
1763368285550587400,1.38958740234375,1.6018113654069601,-1.2479105414696037,0.40310149269700046
1763368285560612400,1.3996123046875,-0.43558395862877364,-1.1449329820759593,-0.14049451236128807
1763368285570637600,1.409637451171875,0.29394962858259677,-0.7758500788368284,-0.17676409561634063
1763368285580662500,1.41966259765625,2.139698491299152,0.7416330441974103,1.2722872962266205
1763368285590687500,1.4296875,0.5997837562263012,1.0083084430158138,-0.14597908125221729
1763368285600713500,1.43971337890625,0.6270861891716718,0.5780347196243703,-1.3420125743597746
1763368285610738400,1.449738525390625,1.7526888862252235,1.095245260451734,-0.4995423437982797
1763368285620763400,1.459763427734375,0.11704364027753472,1.2293462723836301,-0.21169278565645216
1763368285630788400,1.469788330078125,-2.2453619287759063,0.8667448401182889,-1.2566267857581377
1763368285640813300,1.479813232421875,-2.7432570898890494,1.3911512837991118,-0.9399486080169677
1763368285650838300,1.48983837890625,-2.235709864941984,1.207615794351697,-2.4286790992975233
1763368285660863500,1.499863525390625,-0.47226562981605524,0.913340002554655,-2.8949995569735765
1763368285670888400,1.509888427734375,0.5130477220594882,1.3429282278999686,-2.516144616782665
1763368285680914400,1.51991455078125,-0.05236147087812423,1.5138246005266904,-2.7876345762759445
1763368285690939400,1.529939453125,-1.4315611817292868,1.1177163277179003,-3.562409573227167
1763368285700964400,1.53996435546875,-1.4978426030188798,0.43754444504678247,-3.0682752259522674
1763368285710989600,1.549989501953125,1.8160249017126857,-0.3036784109145403,1.994653476026654
1763368285721014500,1.5600146484375,0.6150945764742791,0.2743614232763648,2.7561557344287633
1763368285731039500,1.57003955078125,-0.2197521734714508,0.047993338796496386,1.8226280993700026
1763368285741064200,1.580064208984375,2.9545728589266536,-0.25020430261939763,2.406282558572292
1763368285751090400,1.59009033203125,2.727285613775253,-0.6365937299683689,3.722238900655508
1763368285761115400,1.600115478515625,-1.0519826034389435,-1.7014064427554607,2.3023224178820847
1763368285771140400,1.610140380859375,-2.669485751235485,-1.8425994587749241,0.24178747966885566
1763368285781165300,1.620165283203125,-3.478381628975272,-1.0151555324316024,-0.5382698415994643
1763368285791190300,1.630190185546875,-3.2448712715253234,-0.5520537445411086,-0.2940969280987978
1763368285801215500,1.640215576171875,-2.3989256199382245,-0.7831982496425509,-0.8349293136626481
1763368285811240700,1.65024072265625,-1.609923506322503,-1.711450866907835,-2.519720721703768
1763368285821265700,1.660265625,-0.12361001305580138,-2.214125078991055,-3.039752895823121
1763368285831291600,1.670291748046875,1.0055839864879845,-1.9495573199763894,-3.432994673284888
1763368285841316600,1.680316650390625,1.9378247966066002,-1.7432456428363918,-4.018791405212879
1763368285851341800,1.690341796875,2.770845061777532,-1.7918506837904453,-5.2062552228957415
1763368285861366800,1.70036669921875,3.1351009832516312,-1.9917343737095594,-5.688516177025437
1763368285871391700,1.710391845703125,2.794475820472836,-2.180316917413473,-5.5775978877604
1763368285881416400,1.72041650390625,2.0670473888471723,-2.1578134091824293,-5.048028069967031
1763368285891441700,1.730441650390625,1.9515920406743883,-1.5383873793751,-3.960144570454955
1763368285901467600,1.740467529296875,3.9339135661333797,-1.1612673001527785,-4.106400130560994
1763368285911492600,1.75049267578125,4.004874231280386,-1.052782960036397,-5.454150371789932
1763368285921517600,1.760517578125,3.684278003312647,-2.3298677196726203,-6.896555165225267
1763368285931542500,1.77054248046875,3.0181811154842375,-3.071469053557515,-7.5255112399220465
1763368285941567700,1.780567626953125,1.6567355263799428,-2.6770360204845667,-6.669562519106268
1763368285951592700,1.7905927734375,1.173411326932907,-1.8908254372835158,-5.849760631948709
1763368285961617700,1.80061767578125,1.3777648557424544,-1.0928165720000862,-5.632793120759725
1763368285971642600,1.810642578125,1.4419357146188616,-0.9162906690537929,-5.5299879953235385
1763368285981668600,1.820668701171875,0.880411546421051,-1.1738760218352078,-6.238597452449798
1763368285991693800,1.83069384765625,0.3448401501253247,-1.5264885595276951,-7.3903639338076115
1763368286001718800,1.84071875,1.305776601113379,-0.6909145182207226,-6.3449354281872505
1763368286011743500,1.850743408203125,1.1630486306115984,0.7748176670491695,-4.082753882035613
1763368286021768400,1.8607685546875,1.594082086329162,1.9599545030891894,-1.6042425380766392
1763368286031793700,1.870793701171875,0.32624709333628416,2.9556904647797344,4.213213322594761
1763368286041818600,1.880818603515625,-2.2138322335243226,0.8076981923878193,6.0937739709734915
1763368286051844600,1.8908447265625,0.1733662698715925,-1.6620587672293186,-1.475562966671586
1763368286061869600,1.90086962890625,3.130602795049548,0.27957740435898304,-5.479039313852787
1763368286071894500,1.91089453125,-1.2310495691701768,0.7085977666884661,-1.478515386736393
1763368286081919700,1.920919677734375,-8.159445103031397,1.6993009949088096,5.16084488632977
1763368286091944700,1.93094482421875,-6.981175230151415,2.1444354566931723,8.920516568800807
1763368286101969700,1.9409697265625,-2.3318293751344084,-0.17835808680951595,7.1033403050959105
1763368286111994600,1.95099462890625,-0.246952899608016,-4.596033659285307,1.405461256441474
1763368286122019800,1.961019775390625,-1.4750585242807863,-5.7950207415014505,3.3632384154915806
1763368286132045800,1.9710458984375,-2.5980022312581537,-2.550701550900936,8.371025660485028
1763368286142070800,1.98107080078125,-1.8334639661610126,-1.8202362357974051,8.603581785950064
1763368286152095500,1.991095458984375,-0.1892488986581564,-2.513054834073782,7.037182948577404
1763368286162120700,2.00112060546875,2.31283095241487,-1.3244839319318533,8.108937735587357
1763368286172145700,2.011145751953125,2.815216995206475,-1.2346347341805697,8.298830777367948
1763368286182170600,2.021170654296875,-0.16380349175632,-4.366675453078747,2.6644097631454464
1763368286192195600,2.031195556640625,1.6693980240762232,-2.7946657900869845,1.2723399031966924
1763368286202221600,2.0412216796875,0.5470816552169621,-5.883270102840662,-0.8502858727484941
1763368286212246800,2.051246826171875,-5.417248920372129,-7.8755071653753514,-5.320982841315865
1763368286222271700,2.061271728515625,-3.676948975598812,-3.6452708117872477,-6.817003489604592
1763368286232296700,2.071296630859375,3.610161504483223,2.230857018083334,1.1330559356689451
1763368286242321700,2.08132177734375,2.875893289965391,0.7990028447568416,4.48920059350729
1763368286252347000,2.091346923828125,-2.524766314655542,2.365529107901454,7.515728097054362
1763368286262371800,2.101371826171875,2.303768086645752,5.388290536913275,8.296172371813654
1763368286272397800,2.111397705078125,2.7809511529892683,6.032129707965255,6.95829996599853
1763368286282422500,2.121422607421875,1.5945466351009905,6.73390201254785,6.308192382201552
1763368286292447500,2.131447509765625,2.239254259550571,8.994226532655954,6.38844606861174
1763368286302472700,2.14147265625,1.7433140318974851,8.701934608152508,4.82611316550374
1763368286312497700,2.15149755859375,0.6690900782950222,7.529707522568106,3.4342823750078675
1763368286322522600,2.161522705078125,-1.3492743820562958,8.464269176849722,0.5795026002198458
1763368286332547600,2.171547607421875,-3.433910619086027,6.977506186249852,-3.9197944398880002
1763368286342573600,2.181573486328125,-0.44621173562705513,1.0746563536703586,-7.112884378510713
1763368286352598800,2.191598876953125,1.2132611067622898,1.34957394952476,-8.3404563346982
1763368286362623700,2.201623779296875,-3.6947085041731595,6.368779245111346,-5.386946136566996
1763368286372648700,2.211648681640625,-7.392798467478156,7.060915121820568,1.982292591625452
1763368286382673700,2.221673583984375,-6.567329640600085,6.386145390453934,5.493557668548822
1763368286392699000,2.231698974609375,-5.806461588448285,6.356217285180091,5.456449296382069
1763368286402723600,2.2417236328125,-7.431258254253864,5.163630133134126,5.492590284821391
1763368286412749800,2.251749755859375,-4.405574215793609,4.619356667205691,7.673653052166104
1763368286422774500,2.2617744140625,2.875871078133583,3.947035498034954,9.320644014123081
1763368286432799500,2.271799560546875,7.236915247327089,2.294729478535056,8.614271522268652
1763368286442824700,2.28182470703125,6.166309630352258,0.5971656826823949,7.134481877812743
1763368286452849700,2.291849609375,3.94806776369214,0.36117899824678895,6.089231066846847
1763368286462874600,2.30187451171875,2.892044798821211,0.6730436382263898,5.072361131712794
1763368286472899600,2.311899658203125,1.3652398668207228,1.0567968718528746,3.9079362443119283
1763368286482925600,2.321925537109375,-0.4801940847277641,1.5860019479870795,3.391500048857927
1763368286492950800,2.33195068359375,-4.099119910424948,1.6694196513861417,2.39602887558341
1763368286502975700,2.341975830078125,-4.291447485876083,0.7402095872655511,-1.19114221393466
1763368286513000700,2.352000732421875,-2.932116112446785,1.2140043263450264,-2.2909891229629515
1763368286523025700,2.362025634765625,-1.8780764303475617,0.29850159279853106,-4.951545717811584
1763368286533051000,2.37205078125,-0.8285971880316734,-1.3889026280894874,-8.273394722816347
1763368286543075600,2.38207568359375,2.047145879808068,-1.3295508599326014,-7.34202514257431
1763368286553100500,2.3921005859375,3.430106258367002,0.18045885848104953,-4.6466053241372105
1763368286563126500,2.40212646484375,4.918784434938431,-0.04695522792041301,-4.47774805612266
1763368286573151500,2.4121513671875,3.4151237932905554,-2.2062957005396484,-6.989736137747764
1763368286583176700,2.4221767578125,3.0735312467843294,-3.3847374228551983,-8.18933287629485
1763368286593201700,2.43220166015625,4.107385049945115,-2.684771875433624,-8.04388161830902
1763368286603226600,2.4422265625,2.9541742149978876,-1.6203762190148234,-8.731119786104559
1763368286613251600,2.45225146484375,0.17734978654980657,-1.9162305121749639,-9.989352838015556
1763368286623277600,2.462277587890625,-1.6233930826179683,-2.7449992573812603,-10.83820137143731
1763368286633302800,2.472302734375,-1.3092692655347287,-3.392809377890825,-10.603479592370986
1763368286643327700,2.48232763671875,0.40970848974660035,-3.0850454512283205,-3.592237725257873
1763368286653352700,2.492352783203125,1.0242828417390584,-3.0717826495513316,3.9492496669530865
1763368286663377700,2.502377685546875,3.175071466851234,-4.9303193899095055,5.5585483193755145
1763368286673402600,2.512402587890625,3.843454712051153,-6.630666679000854,4.047307890123129
1763368286683427600,2.522427490234375,3.6491257336497305,-4.367026750734448,3.370914941468835
1763368286693453600,2.53245361328125,3.373383961930871,-2.659823312138021,1.221827275055647
1763368286703478500,2.542478515625,1.7463316261529922,-1.5286360929504037,-1.1723217781305313
1763368286713503500,2.55250341796875,-0.6204506966799497,-0.5958198210313916,-2.2204133654803035
1763368286723528700,2.56252880859375,-3.3499726912051435,-0.08718845410943031,-2.076086143088341
1763368286733553700,2.5725537109375,-4.347519501709938,0.21764175718873738,-1.6683423775434494
1763368286743578600,2.58257861328125,-2.8786528178066013,-0.2836754873275757,-1.4431868837237358
1763368286753603600,2.592603515625,-0.6248924785196781,-0.4034147964298725,-1.3776573037147521
1763368286763629600,2.602629638671875,1.056550203615427,-0.589160947664082,-1.6176964784115553
1763368286773654800,2.61265478515625,2.3008137668848034,-0.5882564000397921,-2.2163182051211594
1763368286783679700,2.6226796875,2.3657681773543358,-0.4354626703366637,-2.982241787096858
1763368286793704700,2.63270458984375,1.7368227701820431,-0.4703469367131591,-3.6892490697234868
1763368286803729700,2.642729736328125,0.7735866639494895,-0.7372156661465764,-4.273298081201315
1763368286813755000,2.6527548828125,-0.14568981598205863,-0.5282499673664569,-4.055170294061303
1763368286823779800,2.66277978515625,-0.28148824294898656,-0.21712357853353023,-3.4231653531879185
1763368286833805800,2.672805908203125,0.10205511078648269,0.09078384825289249,-2.6343296821802853
1763368286843830800,2.682830810546875,0.2878336299203336,0.4127095712587237,-1.6092366931021214
1763368286853855700,2.692855712890625,0.41691023781895636,0.6868073751628399,-1.2515654107153416
1763368286863881000,2.702880859375,1.0111422051370142,0.5806438792094588,-1.2432143464773893
1763368286873906000,2.712906005859375,0.9710334821105002,0.6172209209784865,-0.35643969476521015
1763368286883930600,2.7229306640625,0.34499176049046215,0.6413982076406478,-0.29309155044853685
1763368286893956900,2.732956787109375,-0.29597265884280205,0.6775088009417056,-0.4292454032570123
1763368286903981600,2.742981689453125,-0.7724316486954689,0.28862171155810357,-0.06571545796990394
1763368286914006800,2.7530068359375,-1.5843781461775301,-0.09287322174757719,0.7959937260687351
1763368286924031700,2.76303173828125,-0.6897675401426852,-0.6754726189389825,0.9046966773718595
1763368286934056700,2.773056640625,1.2665899613678455,-1.111961417452991,0.9363403543919324
1763368286944081700,2.78308154296875,1.6809351710043847,-1.082401268708706,1.0772370178133248
1763368286954107000,2.79310693359375,-0.21472543135061858,-0.2648515443921089,1.9116215570747852
1763368286964132900,2.8031328125,-1.156077914816141,0.1423924549371004,2.4963556282073256
1763368286974157800,2.81315771484375,-0.586387683558464,0.002101356193423271,2.4755314513653515
1763368286984182800,2.823182861328125,-0.039918168890476224,-0.3605199498161673,1.940451345717907
1763368286994207700,2.833207763671875,0.23194749204739926,-0.5303679824337363,1.4926619855105876
1763368287004233000,2.84323291015625,-0.42739553760662674,0.17714754197597501,2.02565768609941
1763368287014257700,2.853257568359375,0.34213805155977606,0.7841235477939248,2.3027158011138438
1763368287024284000,2.863283935546875,1.850332098853588,0.9411626599818468,2.230140394246578
1763368287034308600,2.87330859375,2.892536966252327,1.0936255502954124,1.8889830242872236
1763368287044333800,2.883333740234375,3.470696042908728,0.8725324836090207,1.7240110732734202
1763368287054358800,2.89335888671875,2.8613328496932984,0.9020242432922124,1.8278601548045872
1763368287064383700,2.9033837890625,2.280152963910997,1.2539698415085672,1.0234083969920873
1763368287074408700,2.91340869140625,-0.9455316688463091,8.32861625930071,-0.9857856455624103
1763368287084434000,2.923433837890625,-3.814776022316515,4.600422249633073,1.1491560065984725
1763368287094459600,2.933459716796875,-1.4025208190754055,-3.416378177265823,1.6935282567262648
1763368287104484900,2.94348486328125,4.629165529036522,-1.4632169875785708,3.905342720687389
1763368287114509800,2.953509765625,4.334022306755185,-1.0283265641719102,2.2628718665033576
1763368287124534800,2.96353466796875,0.5085375511586666,0.5450257456004619,1.1382768851876257
1763368287134559700,2.973559814453125,-2.233070602479577,2.3204408428966996,2.368926349124312
1763368287144585000,2.9835849609375,-3.222970989884436,4.1209342673480505,1.9731132598698138
1763368287154611000,2.99361083984375,-3.039036856508255,4.1047228449985385,0.4563561130225658
1763368287164636000,3.003635986328125,-2.2179238867521285,4.607817912842333,0.10788988135457038
1763368287174660600,3.01366064453125,-2.3205367044866083,2.4304876100242137,-1.0658803420186043
1763368287184685800,3.023685791015625,0.6057742288127541,1.8827128579765557,-0.8070096256017685
1763368287194710800,3.033710693359375,3.4934523568570612,2.418752748566866,-1.4789099390119314
1763368287204735700,3.04373583984375,1.4787326827488838,1.8760373257353902,-2.3655261852920053
1763368287214761700,3.05376171875,-2.2187695437960326,2.1857520942047235,-1.1723393137872218
1763368287224786700,3.06378662109375,-1.8267217984244226,1.4847116110280156,-1.68811032333076
1763368287234812000,3.07381201171875,-0.5718374724194407,1.1927262682557105,-2.8088211566895245
1763368287244836900,3.0838369140625,-1.0247884531736373,0.8579577225506305,-3.574758767190575
1763368287254861800,3.09386181640625,-0.3702012397445738,0.2244961531281471,-4.081019605588913
1763368287264886800,3.10388671875,0.7277893738925456,-2.63413386734724,-9.179486069416999
1763368287274912800,3.113912841796875,-5.012832837945223,-1.4527309571385383,-3.3827485871255396
1763368287284938000,3.12393798828125,-6.293173092246056,-0.20705226637423038,3.9800381884485483
1763368287294963000,3.133962890625,-2.1706699681460857,-1.7147884868979453,5.795000867757201
1763368287304987600,3.143987548828125,0.547795210313797,-3.4387007759720083,6.210293733507394
1763368287315012600,3.1540126953125,2.8539690429270266,-4.66889314379096,5.042051918166876
1763368287325037800,3.164037841796875,4.001606461656094,-5.1756192616134875,3.4958372061669825
1763368287335063800,3.174063720703125,3.4777462536811825,-5.1544256669372315,2.0639976458877323
1763368287345088800,3.1840888671875,2.282392997922748,-4.8079281049937,2.3392127633839843
1763368287355113700,3.19411376953125,1.321406278052181,-4.830749008610844,1.5131003779053687
1763368287365138700,3.204138671875,0.3403261798322201,-4.618831182026863,1.535970381361246
1763368287375164000,3.214163818359375,-0.9463258148986846,-4.291432288306951,1.857163406178355
1763368287385188900,3.22418896484375,-1.1154372768700123,-4.712077621001005,1.5006903936654328
1763368287395214800,3.23421484375,-0.5066004456162453,-3.0041099200338124,0.9784405434966087
1763368287405239800,3.24423974609375,0.3617909196000546,-0.9712444945126771,0.1753361086398363
1763368287415264800,3.2542646484375,-0.5472679715692996,-0.17464228115677832,-1.9703204142808912
1763368287425290000,3.2642900390625,-1.9023416875541208,-1.264132631343603,-6.01277852628529
1763368287435315000,3.27431494140625,-3.1810055330753326,-1.3441852422237395,-8.85383606519103
1763368287445339600,3.284339599609375,-3.0614906803786752,-1.6838824765026568,-7.165411853605509
1763368287455366000,3.294365966796875,-1.809853957992792,-3.079190003198385,-4.21427890599966
1763368287465390600,3.304390625,0.82159110866189,-4.5645916423171755,-2.470696870815754
1763368287475415800,3.314415771484375,1.5376187330901623,-6.222769184198976,-1.1601111158549784
1763368287485440800,3.324440673828125,1.3271622112303971,-6.626746875208616,-1.6378455324709416
1763368287495465700,3.3344658203125,0.6385504169940948,-5.866809381905198,-2.5143852058947083
1763368287505490700,3.34449072265625,0.5796814639180898,-5.017806534704565,-3.337989992466569
1763368287515516700,3.3545166015625,-0.0034340478355996307,-4.280588238209486,-3.2052640682801603
1763368287525542000,3.3645419921875,-1.8219675896346568,-3.704491062518954,-2.8037755637377497
1763368287535566800,3.37456689453125,-1.6332722332060337,-4.415597597157955,-3.036131490455568
1763368287545591800,3.384591796875,-1.6538029800593852,-5.131441681712865,-3.0062396255388855
1763368287555616800,3.39461669921875,-1.9820476769536732,-5.166231840065121,-2.5266721482768655
1763368287565642000,3.40464208984375,-2.3521844731599093,-5.131885333827138,-2.8102801233261823
1763368287575668000,3.41466796875,-1.158442890381813,-5.076217222619056,-2.554207805456221
1763368287585693000,3.42469287109375,0.09015314913392067,-4.543660497969388,-1.3368040459312498
1763368287595717600,3.434717529296875,1.6774359307117759,-3.431324109724164,-0.029344167906045913
1763368287605742600,3.44474267578125,3.4089036036014555,-0.5514250912487506,1.4672713775359094
1763368287615767800,3.454767822265625,3.648928749772906,0.7916992437452077,2.1656419108510017
1763368287625792800,3.464792724609375,4.166997514864802,-2.3031039236485955,1.5633049630105496
1763368287635818800,3.47481884765625,3.30667423222661,-2.801236400648951,1.2892724794276058
1763368287645843700,3.48484375,-0.16222294456660746,-1.7549322812378405,1.1832375782899558
1763368287655868700,3.49486865234375,-4.648940489086509,-0.14909984362125395,0.394234295630455
1763368287665894000,3.504893798828125,-8.580375682407617,0.5982715980976819,-0.044550650996714826
1763368287675918800,3.5149189453125,-8.566395672371984,0.09301146117448807,0.3264637317616492
1763368287685943800,3.52494384765625,-5.717888986504078,-1.008181017243862,0.7081315374162047
1763368287695969800,3.5349697265625,-1.7288829170934854,1.2766641961365937,-0.23985285834446549
1763368287705994800,3.544994873046875,2.357978838652372,13.529392758524416,-9.16771496760249
1763368287716020000,3.55502001953125,-0.33665655140876766,34.678009644412995,-16.179909605395792
1763368287726045000,3.565044921875,-0.9328671253234148,51.149097660112375,-4.131798191189766
1763368287736069600,3.575069580078125,0.408266620375216,24.516194791889188,1.8123342305012047
1763368287746094600,3.585094482421875,-0.36704204506129023,2.746366746342182,-1.0939186880230902
1763368287756120600,3.59512060546875,5.120741424000263,-2.96754164609313,2.1103969934910536
1763368287766145800,3.605145751953125,11.118768371355532,-3.6472780599564314,3.221038852778077
1763368287776170800,3.615170654296875,10.700344221842288,0.47144613012671466,1.9543933618307112
1763368287786195700,3.62519580078125,6.458792108991742,4.9762300772130486,0.5009856744743884
1763368287796220700,3.635220703125,2.2666759349614383,6.657904814538359,-0.6979096378050744
1763368287806246700,3.64524658203125,-0.8943547315776348,5.671134249591827,-2.047789146147668
1763368287816272100,3.655272216796875,-1.5514157877743244,3.730003104916215,-2.7016896924868226
1763368287826297000,3.665297119140625,-1.014380456405878,2.432126024881005,-2.4717495947390793
1763368287836322000,3.675322021484375,-0.1972995186448097,1.7676748584330082,-1.83313736455515
1763368287846347000,3.685346923828125,0.6168173086136579,1.3711194263786077,-1.3744468172356485
1763368287856372200,3.695372314453125,1.6657330718278884,1.4388970775753258,-0.7457965936176478
1763368287866398200,3.705398193359375,2.6211101351231334,1.7367203327208756,-0.18008783321157096
1763368287876423200,3.715423095703125,3.4062130493432283,2.394068973687291,0.3820924608074128
1763368287886448000,3.7254482421875,4.5606846980065106,3.2207524370521305,0.7890611503265798
1763368287896472800,3.735472900390625,6.278722542089223,4.36541931553781,1.1505335785619915
1763368287906498000,3.745498046875,8.335527646124362,5.3858770460307595,1.178620586013794
1763368287916523000,3.75552294921875,9.587732523787022,6.3278790794461965,1.5720328977368772
1763368287926549000,3.765549072265625,11.430202803224324,7.582542456176877,1.9196211775265632
1763368287936574000,3.775573974609375,9.309598303973674,7.651915852132439,1.118828380613029
1763368287946599000,3.785598876953125,4.040678242850303,6.132907711488008,-0.4764997602544725
1763368287956624100,3.7956240234375,-0.2946659601584077,4.77553565543294,-1.4207587788164615
1763368287966649000,3.805649169921875,-4.364409846234321,4.702379233807325,-1.385914698319882
1763368287976675000,3.815675048828125,-6.122331372416019,5.2106216014117,-0.9454190022520721
1763368287986700000,3.825699951171875,-5.801690720784664,5.392646978557109,-1.1821471527047454
1763368287996725000,3.83572509765625,-4.842027066211402,5.789056280139088,-0.42420887039452787
1763368288006750200,3.845750244140625,-5.961736321312189,4.796903437632322,0.7762778027296066
1763368288016775200,3.855775146484375,-7.075588374817371,3.315019451245665,1.3331931619577109
1763368288026799900,3.8657998046875,-8.028480635559559,3.0052602591127155,1.821654724293202
1763368288036826000,3.875826171875,-7.1783157588422295,2.258986549502611,1.4745723481990396
1763368288046850800,3.885850830078125,-3.9120717366814612,1.6819021163403987,1.1324969866119325
1763368288056876000,3.8958759765625,-1.7182167077809571,2.0091846902042625,1.2053740067742764
1763368288066901000,3.90590087890625,-1.0687591123253106,1.7017238381415605,0.42719519272893663
1763368288076926000,3.915926025390625,-3.204334386214614,0.9514660273313522,-0.6909590880148112
1763368288086952000,3.925951904296875,-5.358320930585265,0.062111880519986146,-1.117536368041113
1763368288096977000,3.935976806640625,-5.577618346026539,-0.7692904280602931,-1.16621885814555
1763368288107002000,3.946002197265625,-6.159790457716584,-1.8635118984222412,-1.2767764243394135
1763368288117027000,3.956027099609375,-7.2979159517347805,-3.067520608192682,-1.095429969368875
1763368288127052000,3.966052001953125,-7.879926150861382,-4.463865661242604,-0.9839870717078447
1763368288137077000,3.976076904296875,-7.309125328013301,-5.4745098537296055,-0.719145318057388
1763368288147103000,3.98610302734375,-6.6821613039165735,-5.875487778401374,-0.2662880069360137
1763368288157128200,3.996128173828125,-6.131838620951771,-6.165935536342859,0.20401026832982896
1763368288167153200,4.006153076171875,-5.632550544175506,-6.143189451527595,-0.20637232128605246
1763368288177178000,4.01617822265625,-5.9919432435274125,-5.323721910890937,-0.11472659550681709
1763368288187202800,4.026202880859375,-6.457624234256148,-4.34699343200922,-0.0283327989064157
1763368288197228000,4.03622802734375,-6.239226398003101,-3.261557910171151,0.06948197089657188
1763368288207254000,4.04625390625,-5.680668386134505,-2.165488766115904,-0.3206881440348923
1763368288217279000,4.056279052734375,-5.959136367946863,-1.8545704670757055,-0.217041014816612
1763368288227304000,4.066303955078125,-5.903785067602992,-2.1332477077245713,-0.01923515408486128
1763368288237329000,4.076328857421875,-5.418819530689716,-2.641249836832285,0.5697448840543627
1763368288247354000,4.08635400390625,-4.9047260989695785,-3.2496284029245373,1.189510228818655
1763368288257380000,4.096380126953125,-4.318956255048513,-3.39628786765635,1.5408856259316206
1763368288267405000,4.106405029296875,-4.055060988467932,-3.625415187716484,1.5384101757287978
1763368288277430000,4.116429931640625,-3.7683869038462636,-3.584032791492343,1.4789311279304325
1763368288287455000,4.126455078125,-3.4588591823816297,-3.0414766508758064,1.5022088354043661
1763368288297480200,4.136480224609375,-3.593711889463663,-2.533222592833638,1.7037972834147512
1763368288307505200,4.146505126953125,-3.6185844649136065,-2.1199270383805033,2.4021990886509417
1763368288317531100,4.15653125,-3.2826468754291533,-1.9872563515126704,3.0354841324627397
1763368288327556000,4.16655615234375,-0.3202478529214859,-2.125362507432699,3.163974903297424
1763368288337580800,4.176580810546875,15.498275248956679,-2.6815514520823953,1.8526478284500538
1763368288347606000,4.18660595703125,24.657910954999924,-1.728120262157917,-0.057496203418076035
1763368288357631000,4.196630859375,3.3951533106684684,4.76178945415318,-0.7437262170843779
1763368288367657000,4.206656982421875,-7.14237643045485,8.299418221867084,-3.139074855318665
1763368288377682000,4.216681884765625,-7.372302207416295,6.897784999281168,-2.1599057052865622
1763368288387707000,4.226706787109375,11.525731215655803,4.680482459297776,1.351693572027236
1763368288397732000,4.236732177734375,0.2786982834368944,2.513994745272398,-1.057839512773603
1763368288407757000,4.246757080078125,-11.524978351461886,-0.1336357325077057,-6.560951922261714
1763368288417783000,4.256782958984375,4.84666437062323,-2.760939461573958,-5.42414569414854
1763368288427808000,4.26680810546875,2.9919460195094345,-1.3154033843755721,1.8171017371639608
1763368288437833000,4.2768330078125,-3.9551749653488395,0.8206775009483098,3.164657332603633
1763368288447858200,4.286858154296875,-0.31031156531870363,2.4983365728914735,0.420450686904788
1763368288457883100,4.296883056640625,-1.2983365142405032,4.501854323375225,-1.8910579308651387
1763368288467908000,4.306908203125,-0.767593561014533,5.466120795568823,-2.421722265896946
1763368288477934000,4.31693408203125,0.5520230571419,5.003844644847512,-2.3029760594852267
1763368288487959000,4.326958984375,0.0018605331748723982,3.4972675312310457,-2.2688386659532784
1763368288497984000,4.33698388671875,-0.009776713126897811,1.4317653259992598,-2.539873282894492
1763368288508009000,4.347009033203125,-0.43073944120705127,-0.24376374817788599,-3.01099558789432
1763368288518034000,4.357033935546875,-0.7500678411960602,-1.2831991508632898,-3.2148271386563776
1763368288528059000,4.367058837890625,-0.9388941305279731,-1.3532809873491525,-2.873312041300535
1763368288538084900,4.3770849609375,-1.4384282910197972,-0.6875000336021184,-2.265122568039596
1763368288548110000,4.387110107421875,-2.4607629213005304,0.10575813002288341,-1.6008884053431451
1763368288558135000,4.397135009765625,-2.681526317641139,1.248684886842966,-1.0682383033215999
1763368288568160000,4.407159912109375,-2.5285215755358337,2.319668104958534,-1.2621195379555226
1763368288578185000,4.41718505859375,-2.241869410485029,2.7120757696837186,-1.4885411061882972
1763368288588211000,4.4272109375,-2.0949153467208146,2.3349334786295888,-1.4879752889990805
1763368288598236200,4.437236083984375,-2.3636869871661066,1.8783038093626498,-1.402654090066254
1763368288608261000,4.44726123046875,-2.1895088163897394,1.6050193676680327,-1.1492215461153537
1763368288618286000,4.4572861328125,-1.5588964989185332,1.1670102277189494,-0.8295571921702474
1763368288628311000,4.46731103515625,-1.0311959821283816,0.6171282742589712,-0.5024475637204945
1763368288638337000,4.4773369140625,-1.1497659551903605,-0.10979776080250739,-0.3458341295987367
1763368288648362000,4.487362060546875,-1.261018006454408,-0.6596832213938236,0.06014306466504931
1763368288658387000,4.497386962890625,-1.492346051429212,-1.1351251431584357,0.6988637236595153
1763368288668412000,4.507411865234375,-1.9131705400824546,-1.2711837188988924,1.2915518225364386
1763368288678437000,4.51743701171875,-1.920397714857012,-1.441867617818713,1.4816384871929884
1763368288688462800,4.527462890625,-1.9212872110426424,-1.1948714635908604,1.9460187705866991
1763368288698488000,4.537488037109375,-1.7936403436861932,-1.0892869365692137,2.4067020991586148
1763368288708513000,4.547512939453125,-1.4335446106314658,-0.11508534581661224,2.973532118679583
1763368288718538000,4.5575380859375,-0.6003390520215034,1.1696148572593927,3.930075010883808
1763368288728563000,4.56756298828125,0.36302674500532445,2.217587786665559,4.860083239644766
1763368288738588200,4.577588134765625,1.8347078287422656,1.9388035785108804,4.808630115783214
1763368288748614100,4.5876142578125,3.0458991434931755,0.5979910275906324,3.9665363173186776
1763368288758639000,4.59763916015625,3.1170997548758983,-0.5275210685700178,3.167884185695648
1763368288768664000,4.6076640625,2.1032465372145173,-1.4095125776588915,2.5168919280186293
1763368288778689000,4.61768896484375,1.6565005485802888,-2.1951719567179677,2.3323184738256035
1763368288788714000,4.6277138671875,1.8525427606403826,-2.2188626289069653,2.555969846692681
1763368288798740200,4.637740234375,1.7794395305067299,-2.335191252782941,2.4896271967351433
1763368288808765000,4.647764892578125,2.0278122337847946,-1.9686720625519751,1.9367446001544593
1763368288818789600,4.65778955078125,2.3491730163842437,-1.3292822721242903,0.9481408284313976
1763368288828814800,4.66781494140625,2.990094838684797,-0.778177498871088,-0.6263194425828754
1763368288838839800,4.67783984375,3.83404215606153,-0.6872182940512895,-1.8337911522887647
1763368288848864800,4.68786474609375,4.312598994976282,-1.2078180389255284,-2.1699742409668863
1763368288858890800,4.697890869140625,3.7213951433077455,-1.5691098498970268,-1.5348521909862756
1763368288868915700,4.707915771484375,2.6293513092458247,-1.5979858157694338,-1.7377951223455368
1763368288878941000,4.71794091796875,1.5689076053231954,-0.8546060740351676,-0.8922786559559405
1763368288888966000,4.7279658203125,1.126393409039825,0.26795009492933747,0.8245037812381982
1763368288898990800,4.737990966796875,1.3580308122247458,0.8925088114500045,1.9469369083449244
1763368288909016800,4.748016845703125,1.3493120837181807,1.233524142590165,2.8440210648864506
1763368288919041800,4.758041748046875,0.6137943075306713,1.2493261073559523,3.4716531975030898
1763368288929067000,4.76806689453125,0.0178898769557476,1.2994459367871283,3.370711235590279
1763368288939091700,4.778091796875,-0.04331365654766559,1.1717138753652572,2.809603831499815
1763368288949116700,4.78811669921875,-0.004244359571486711,0.7070663193374872,1.2123700031414628
1763368288959142700,4.798142578125,0.29594635535776614,0.20132395185530186,-0.5079749488398433
1763368288969167600,4.808167724609375,0.7999836724877357,-0.33633389532566066,-1.4476989543206988
1763368288979192800,4.81819287109375,1.9213709438033402,-0.45218554933965205,-1.2026881286911666
1763368288989217800,4.8282177734375,3.6921366078585383,-0.051226329368352884,-0.2772252882748842
1763368288999242800,4.83824267578125,5.4793947031617165,0.6095446872621775,0.5144163800641894
1763368289009267700,4.848267822265625,6.536468638390303,1.1961574117481708,1.1756306104175747
1763368289019293700,4.858293701171875,6.132238433924317,1.2675152595192194,1.8768436736822127
1763368289029319000,4.86831884765625,4.256989920479059,1.4211135836035012,2.3748253440350293
1763368289039343900,4.87834375,2.0777280650764705,2.3170488623708487,2.3443482265762983
1763368289049368800,4.888368896484375,0.262908009108901,3.1095944938123226,2.2872370769530534
1763368289059393800,4.898393798828125,-1.3722298718385397,3.3834143575578928,2.3930817162156104
1763368289069419800,4.908419677734375,-2.7178333102971313,3.440686396831274,2.1661000298820436
1763368289079445000,4.918445068359375,-3.761187347730994,3.3103602272629735,1.3661203029170632
1763368289089469700,4.9284697265625,-3.7468537019520998,3.1608763527601957,-0.36662586547583337
1763368289099494700,4.93849462890625,-2.5939649385660886,3.1964819191485643,-2.277358218625933
1763368289109519600,4.94851953125,-0.8186284594640135,3.59905091240406,-3.273965556323528
1763368289119545600,4.958545654296875,0.8937440523333847,4.110851264750957,-3.7377041808128353
1763368289129570800,4.96857080078125,2.1384150273598728,4.948052614998817,-3.7574785563409328
1763368289139595800,4.978595703125,2.7249077787280083,5.565552645179629,-3.4265053112655877
1763368289149620700,4.988620849609375,3.3287007705956695,5.4726048968911165,-2.672909880465269
1763368289159645700,4.998645751953125,4.446692408123612,4.508693229484558,-1.800206424203515
1763368289169671700,5.008671630859375,5.510457365423441,3.2632091845095155,-1.2594243075221776
1763368289179697000,5.01869677734375,5.691652721485495,2.759377034562826,-0.7808011253729462
1763368289189721900,5.028721923828125,5.30954140984714,2.8604852929532525,-0.6692663116447627
1763368289199746800,5.038746826171875,5.016907540038228,3.4092151537686584,-0.6914449718356133
1763368289209771800,5.048771728515625,5.056494869539141,4.093490964627265,-0.5124900881767273
1763368289219797000,5.058796875,5.480398911768198,4.702302661439776,-0.2506844873517752
1763368289229823000,5.068822998046875,5.783976200395823,5.090227627792954,0.5502696376033127
1763368289239848000,5.078847900390625,5.533188252669572,5.069804432967305,0.8698335999138653
1763368289249872600,5.08887255859375,4.939786306434869,5.050068635883927,0.2727725466497242
1763368289259897600,5.098897705078125,3.8582594824731347,5.295886393982172,-0.18013766370266676
1763368289269922800,5.1089228515625,1.5519100010320543,5.318844660243392,-0.8730512467861175
1763368289279948800,5.11894873046875,-2.137016997130215,5.183198172435164,-1.2872761910438537
1763368289289973800,5.128973876953125,-5.6263084349155426,4.43263465667665,-1.2348073142684994
1763368289299998700,5.138998779296875,-7.084773551791906,2.676398891624808,-1.246807548663765
1763368289310023700,5.149023681640625,-5.315455602326989,2.638261760932207,-0.0032594401873648165
1763368289320049000,5.159048828125,-3.346716027496755,2.6083342401802536,0.07007584513649344
1763368289330075000,5.169074951171875,-4.436602683524788,1.3746873479932546,-0.17047946238890288
1763368289340099800,5.179099853515625,-5.543661715888977,0.364466933876276,-0.008917027557641267
1763368289350124800,5.189124755859375,-6.13849983240664,-0.029769699841737746,0.37035613804534073
1763368289360149800,5.199149658203125,-6.623260786658525,-0.3729267191857099,0.6599781126871704
1763368289370175000,5.209175048828125,-7.055828027814626,-0.8049053467988967,0.5912342468068004
1763368289380201000,5.219200927734375,-5.494203565236925,-0.4219149142384529,0.618629910993576
1763368289390226000,5.229225830078125,-1.8548627280205487,-0.006402852779626846,0.7641609562173486
1763368289400250600,5.239250732421875,0.8957406329780816,0.9249018455326556,1.2046291797563433
1763368289410275600,5.249275634765625,-2.0713643752634523,1.7538047385126352,1.8058238256938755
1763368289420300800,5.25930078125,-5.163335534101725,2.4616619159668685,2.140321883894503
1763368289430326800,5.269326904296875,-4.1108652932763095,1.4920523291796446,1.0927613346815108
1763368289440351700,5.279351806640625,-5.7612610952407115,0.29585341637730594,0.33166400381848216
1763368289450376700,5.289376708984375,-6.970836791488527,-0.8683774097561836,0.20332959258928893
1763368289460401700,5.299401611328125,-6.829957079201936,-2.008413705831766,-0.20536314424350857
1763368289470427000,5.309427001953125,-6.16020780634582,-3.2033553120493887,-1.0544428560726344
1763368289480451800,5.319451904296875,-6.077817107906937,-4.248991907462478,-1.6242900314576922
1763368289490477800,5.329477783203125,-6.0015901927948,-4.898184714502096,-1.7630495367199182
1763368289500502800,5.339502685546875,-5.592694919127226,-5.102364055788517,-1.6196058191642164
1763368289510527700,5.34952783203125,-5.047127906256914,-4.744510402572154,-1.1257532114401458
1763368289520553000,5.359552978515625,-4.644246778312326,-4.036117803066968,-0.8861259785450994
1763368289530578000,5.369577880859375,-4.5628293088197704,-3.1175223642021415,-1.138070110569149
1763368289540604000,5.37960400390625,-4.987600197011232,-2.5135949322998523,-0.7934827661611139
1763368289550628900,5.38962890625,-4.624516241925955,-2.1515169393867253,-0.1764439237512648
1763368289560653600,5.399653564453125,-4.645552600213885,-2.260912549129128,0.4603296928286552
1763368289570678800,5.4096787109375,-4.54818937357068,-2.0055928031921386,0.9795651636123657
1763368289580703700,5.419703857421875,-4.719280099725723,-1.863650430110097,1.1599493494220077
1763368289590729700,5.429729736328125,-4.705442128509283,-1.9572376453459261,1.3254190208248793
1763368289600754700,5.439754638671875,-3.939017611274123,-2.277829197138548,1.6955734988182782
1763368289610779600,5.449779541015625,-3.3140438842117783,-2.793953842425346,2.1501284076377747
1763368289620804900,5.459804931640625,-3.6392753707647323,-3.190924285021424,2.560923669707775
1763368289630829800,5.469829833984375,-4.046403050237894,-3.2120921607345343,2.9290356820881365
1763368289640855800,5.479855712890625,-4.197036679297685,-3.2160598953217265,2.980249736496806
1763368289650880800,5.489880859375,-4.206377923616767,-3.39237157099545,2.773190455859899
1763368289660905700,5.49990576171875,-2.615295895886421,-3.4666040974199768,2.549309804281592
1763368289670931000,5.509930908203125,9.872061506587267,-3.606876491463184,1.6041057599544524
1763368289680956000,5.519955810546875,24.682400084090233,-3.083699589577317,-1.1247928419753908
1763368289690982000,5.52998193359375,7.380652687132359,3.883188172024488,-1.8410915384300053
1763368289701006800,5.5400068359375,-1.4047534004330635,9.443862397512794,-3.13630597512722
1763368289711031600,5.550031494140625,-8.066288095906376,7.143450781688093,-4.037541113868356
1763368289721056800,5.560056884765625,-1.6196598874390125,3.0710224788337945,-2.5305443135350942
1763368289731081700,5.570081787109375,12.924225555694102,0.045945758616924286,-0.3930170287951827
1763368289741106700,5.580106689453125,-5.173341379809379,-0.5332534747421741,-2.330699786582589
1763368289751132700,5.590132568359375,-8.701088804978133,-2.4602649086505175,-5.040296014410257
1763368289761157600,5.60015771484375,6.278385857480764,-3.4007489387184378,-3.075605714970827
1763368289771182800,5.610182861328125,0.863897049471736,0.820194101345539,1.8327128555327652
1763368289781207800,5.620207763671875,-3.673172379669547,4.1629596376508475,1.880901424640417
1763368289791232800,5.630232666015625,-1.0409428846389055,5.771570892331003,-0.5068216871514916
1763368289801258800,5.6402587890625,-1.0891975047200917,7.0767346222430465,-2.4256898543536662
1763368289811283700,5.65028369140625,-0.21459902849197388,7.172060790100693,-2.3789763262346386
1763368289821309000,5.660308837890625,0.5742243675559758,5.635752555087208,-1.2969919677637516
1763368289831334000,5.670333984375,0.6296323665231466,2.821764809414744,-1.2911373965166508
1763368289841358800,5.68035888671875,0.920988471481204,-0.18614216481447218,-2.2801528177805244
1763368289851384800,5.690384765625,0.038187399575114245,-2.343758590120077,-3.1488337405279276
1763368289861409800,5.700409912109375,-0.3442851465910673,-3.1957448370456696,-3.1815076373785733
1763368289871434800,5.710434814453125,-0.74861355073452,-2.8263819478213787,-2.583590844067931
1763368289881459700,5.720459716796875,-1.6058926433712244,-1.4200363097608089,-1.6304431472599505
1763368289891484700,5.730484619140625,-2.002005007833242,0.3934878611773252,-0.6530484595544636
1763368289901510700,5.7405107421875,-2.2177432694882153,1.7961510113328694,-0.23726167280748486
1763368289911535600,5.75053564453125,-2.816895742073655,2.8548844042062758,-0.26207155828475953
1763368289921560800,5.760560791015625,-2.7830858269304035,3.456843166384101,-0.5795287575744092
1763368289931585800,5.770585693359375,-3.074777447453141,3.381578374302387,-0.8449315061084925
1763368289941610800,5.78061083984375,-3.014051468333602,2.8889345578461882,-0.9209577840819955
1763368289951636700,5.79063671875,-2.5962308376714587,2.4521026449829337,-0.7532239671394229
1763368289961661700,5.80066162109375,-2.126927564792335,1.9889695851713418,-0.5474801530152559
1763368289971687000,5.81068701171875,-1.7450573684334754,1.4099708428204059,-0.30289032927677034
1763368289981712000,5.8207119140625,-1.717312452417612,0.3880383635997772,-0.40293534234985706
1763368289991736800,5.83073681640625,-1.469212720862031,-0.2450140404999256,-0.12329466349631547
1763368290001762800,5.8407626953125,-1.0959588155485689,-0.7812707887113094,0.1404975811012089
1763368290011787800,5.850787841796875,-0.8641022166550159,-1.2290431977838276,0.2813793392144143
1763368290021812700,5.860812744140625,-0.9839533155687152,-1.0067191279977559,0.6199050454959273
1763368290031837700,5.870837646484375,-0.9530136951647699,-0.8740805898338556,0.9499290270224213
1763368290041862700,5.880862548828125,-0.7257189973592758,-1.3798638738483189,1.2864767112292348
1763368290051887900,5.890887939453125,0.02932283285707235,-1.72675306545794,1.7335389262057839
1763368290061913900,5.900913818359375,0.8228291260242462,-2.0315946749329568,1.868081398294866
1763368290071938800,5.910938720703125,1.4170003030657767,-2.4736574741870165,1.537390623422712
1763368290081963800,5.9209638671875,1.555897901624441,-2.560405198791623,1.7496715842306614
1763368290091988700,5.93098876953125,2.2404583746433255,-1.1884031443595886,2.6842066427662967
1763368290102014000,5.941013916015625,2.9024831907272337,0.3344593336254358,3.2407863402992487
1763368290112039700,5.951039794921875,2.6773873181402683,0.6009814415782689,3.421144661015272
1763368290122065000,5.96106494140625,2.1502783375024794,0.05361176320016384,3.3721254863023757
1763368290132089900,5.97108984375,2.7236574864059686,-0.5001677822202444,2.9988895550370214
1763368290142114800,5.98111474609375,3.142062931218743,-0.7624737337827682,2.463371057972312
1763368290152139800,5.991139892578125,3.276136470621824,-0.9655132573843002,1.9400686300106345
1763368290162165800,6.001165771484375,3.873044963672757,-1.3367846105784178,1.587569635695219
1763368290172190700,6.011190673828125,4.697430086967349,-1.5301444516867397,0.8318206801228225
1763368290182215700,6.021215576171875,4.223925270745158,-1.2388029597759247,0.12317045259475708
1763368290192240600,6.03124072265625,2.989084200337529,-0.7394996854305267,-0.8238827267304062
1763368290202265900,6.041265869140625,2.0455285077393053,0.12198504220247268,-1.485655467749387
1763368290212291800,6.051291748046875,1.3381915547668932,0.6902993089318276,-0.8517028999395668
1763368290222316800,6.06131689453125,1.1491052993245423,0.5839402904063463,0.00965410966053605
1763368290232341800,6.071341796875,1.2332453256487845,0.417809817007184,0.8440531158387661
1763368290242366700,6.08136669921875,1.7607815917879341,0.3437707673281431,1.0744567394450306
1763368290252392000,6.091391845703125,1.6562005427204072,0.2943915271311998,1.3154998304873704
1763368290262418000,6.10141796875,0.8190102983884513,0.807838477641344,1.9858808253757654
1763368290272443000,6.11144287109375,-0.3190846543610096,0.8434832069963216,2.094693666794151
1763368290282467800,6.1214677734375,-0.9329974006395787,0.5585305393397808,2.052689193148911
1763368290292492800,6.131492919921875,-1.5342016181230544,0.18081015613675117,1.966801592504978
1763368290302518000,6.14151806640625,-1.8686738112300634,-0.3574345510214567,1.0445499692201614
1763368290312543700,6.151543701171875,-1.6935988377444444,-0.8725023807317018,-0.07043240348920225
1763368290322569000,6.16156884765625,-1.1274643992722033,-1.35651222435534,-1.0806928573556245
1763368290332593700,6.17159375,0.03607435294389724,-1.374126791501045,-1.2519931346081197
1763368290342618600,6.18161865234375,1.0592432420916855,-1.0790507892370222,-0.7512339623659848
1763368290352643800,6.191643798828125,1.7496606244452297,-0.5081745630651712,-0.14888634700104594
1763368290362669800,6.201669921875,2.446695232981443,0.006660042411088943,0.23714169968962667
1763368290372694800,6.21169482421875,3.3964603016138075,0.5339969865858555,0.5877540034756064
1763368290382719700,6.2217197265625,4.228691462233662,0.8185860816270113,0.9196598532259463
1763368290392744700,6.23174462890625,4.46683912409544,0.7916706021726131,0.9610866731137037
1763368290402770000,6.24177001953125,3.749814889845252,0.7855085724115372,0.6167115101516246
1763368290412796000,6.2517958984375,2.519922966277599,1.0271569358706474,0.13180135668739676
1763368290422820900,6.26182080078125,1.094154250344634,1.0023030651211737,0.07025894661843776
1763368290432845800,6.271845703125,-0.26583003403544425,0.7671154221087694,0.4276452745839953
1763368290442870800,6.281870849609375,-1.1302360559426248,0.8054097891896963,0.8932761425606905
1763368290452896000,6.29189599609375,-1.419702986153215,1.1040355928897858,1.549749023605883
1763368290462922000,6.301921875,-1.1824233392976224,1.3323960202306508,2.086139627330005
1763368290472947000,6.311947021484375,-0.783755591264367,1.6271815151154994,2.3367462271399795
1763368290482971600,6.3219716796875,-0.5651664702229201,2.4157132347404957,2.3717171488866207
1763368290492996600,6.33199658203125,-0.6674537092648446,3.0239333954006433,2.051043033377081
1763368290503021800,6.342021728515625,-0.4517424817472696,3.1045278580725193,1.3626231084510683
1763368290513046800,6.352046875,0.23642171485200522,2.9656711760461327,0.44529359786882994
1763368290523072800,6.36207275390625,0.9677012689478695,2.9546763193011283,-0.7316225223146379
1763368290533097700,6.37209765625,1.5529701776094733,3.4756630176663394,-1.6369624660260975
1763368290543122700,6.382122802734375,1.6871008540272712,4.054630195835233,-2.201220589232445
1763368290553148000,6.39214794921875,1.5186942523896694,4.3407209276109935,-2.4877877063483
1763368290563172900,6.4021728515625,1.421316558829695,4.321483727699518,-2.461906830638647
1763368290573198800,6.41219873046875,1.7245961796849965,3.943807183638215,-2.278639344477653
1763368290583223800,6.422223876953125,2.631844295105338,3.4851351948887106,-2.044228092665225
1763368290593248800,6.432248779296875,3.8453374570578336,3.1344629776090382,-1.8575633652813732
1763368290603274000,6.44227392578125,5.090052855747937,2.943513120251894,-1.6581591294422744
1763368290613299000,6.452298828125,6.220346925488114,3.0007991880506277,-1.4521720080815255
1763368290623325000,6.462324951171875,6.996857952451705,3.2967642481088637,-0.8939308070771396
1763368290633350000,6.472349853515625,7.617268317121267,3.6717502379119393,-0.30029344465136526
1763368290643374600,6.48237451171875,8.490691319829224,4.163757510030269,0.2024234375298023
1763368290653399800,6.49239990234375,9.434716383504867,4.907345926079154,0.7902528443291783
1763368290663424800,6.5024248046875,9.073277273017167,5.692829364049435,0.4597619759432971
1763368290673450800,6.51245068359375,6.45950464117527,6.020614042216539,-0.47837242225855586
1763368290683475700,6.522475830078125,2.6368992404073475,6.453651238971948,-0.1375682496510446
1763368290693500700,6.532500732421875,-0.5292176433548331,6.9426073068261145,0.21994711152166127
1763368290703526000,6.54252587890625,-3.6798712927863,7.074294243353605,0.4112687248006463
1763368290713550800,6.55255078125,-6.368561218446493,6.331943844667077,0.51137993497774
1763368290723576800,6.562576904296875,-6.8090300265073775,4.938194068807364,-0.45360330718308683
1763368290733601800,6.572601806640625,-5.825819784390926,4.029304031398892,-0.90751655709818
1763368290743626800,6.582626708984375,-6.06373071488738,3.6326784567177293,0.100383012855798
1763368290753652000,6.59265185546875,-5.160797540056705,2.756325830298662,0.3410468953222036
1763368290763677000,6.602677001953125,-4.337084616935253,1.2280939342349766,0.4167148613773286
1763368290773703000,6.612702880859375,-5.411110271486639,0.395368268096447,0.1635942329198122
1763368290783727900,6.622727783203125,-6.179757140946388,0.24579203913509845,-0.03580116202570498
1763368290793752600,6.632752685546875,-5.907058390185236,0.22374153536856173,0.44135976555123924
1763368290803777800,6.64277783203125,-4.496254019150138,0.43544367337524886,0.5077165170993656
1763368290813802800,6.652802734375,-3.1692917144060133,0.5587935741901398,0.5128169820435345
1763368290823828700,6.662828857421875,-3.260301188108325,0.9925205067753792,0.8776989995267241
1763368290833853700,6.672853759765625,-3.690246264067292,0.9817425076514482,0.728242086096108
1763368290843878700,6.682878662109375,-4.211549188774824,0.12252163329720496,0.27220782543905075
1763368290853904000,6.69290380859375,-4.593834103414416,-1.068821656167507,0.03949760539084673
1763368290863928600,6.702928466796875,-4.472999400290846,-2.3028841434180736,-0.9316621334478259
1763368290873954800,6.712954833984375,-5.132203898257017,-3.1194641459196806,-1.7245973487287758
1763368290883979500,6.7229794921875,-6.252372879824042,-3.634954584956169,-1.8011004504337906
1763368290894004500,6.73300439453125,-6.222939864590764,-4.104437890577316,-1.8761013308823107
1763368290904029700,6.74302978515625,-5.315158080685138,-4.302231330218911,-1.636129814594239
1763368290914054700,6.7530546875,-3.74886679534018,-4.419857592689991,-1.3980239460475743
1763368290924079600,6.76307958984375,-3.4108225889652966,-4.172959053617715,-1.5478599949888885
1763368290934105600,6.773105712890625,-4.64774455730021,-3.5175866811603305,-1.344955203682929
1763368290944130600,6.783130615234375,-5.605550309047103,-2.7768682675898075,-1.0522200654566287
1763368290954155800,6.79315576171875,-5.526489047291874,-2.214872097966075,-1.0571499230742454
1763368290964180700,6.8031806640625,-4.797574468761682,-1.95808812469542,-0.7442015795111656
1763368290974206700,6.813206787109375,-4.420159205985069,-2.115852920809388,-0.2347621110767126
1763368290984231700,6.823231689453125,-4.754756486776471,-2.2828981709659097,0.14336363805681465
1763368290994256600,6.833256591796875,-5.085584770423174,-2.473350600194931,0.3864839737646282
1763368291004281900,6.84328173828125,-5.088246098586916,-2.8978391643136736,0.6010511458136141
1763368291014306600,6.853306640625,-4.1977509650468825,-3.080902652335167,0.829196615229547
1763368291024331500,6.86333154296875,-3.889962196204066,-3.070418667721748,0.895965673905611
1763368291034357500,6.873357421875,-3.6183787132084366,-3.0837142026245594,0.8973686725713312
1763368291044382500,6.883382568359375,-3.5681261973083016,-3.284868058609962,0.7659887561663985
1763368291054407700,6.89340771484375,-3.988309757709503,-3.586822129949927,0.7131172899395227
1763368291064432600,6.9034326171875,-4.371187962067127,-3.693387484702468,0.8851433972485363
1763368291074457600,6.91345751953125,-4.506874781885743,-3.73982131909728,0.9950359967276453
1763368291084483600,6.923483642578125,-4.3255520000517365,-3.7931653712719675,1.1820602050736546
1763368291094508500,6.933508544921875,-3.478578028330207,-3.756636260297894,1.3376995334662496
1763368291104533800,6.94353369140625,4.465660727965831,-3.6700042710274454,1.26050158136487
1763368291114558700,6.953558837890625,23.13037756259441,-3.2430975398510693,-0.22242475368157028
1763368291124583700,6.963583740234375,15.637802962112426,1.5491910974621772,-0.9151130766417831
1763368291134609700,6.973609619140625,1.3690829521149397,9.132612674561143,-2.2465835795253515
1763368291144634600,6.983634521484375,-5.041847335505485,11.295085892248153,-1.6551381741859017
1763368291154659800,6.993659912109375,-1.4345967500329018,9.518982228165864,0.9935365519501268
1763368291164684800,7.003684814453125,13.622774806576967,5.825653195652365,2.3120501773007214
1763368291174709500,7.01370947265625,-6.365888199844956,1.9246599023461342,-1.429725052343309
1763368291184735700,7.02373583984375,-13.47795249414444,-1.8749363787561655,-4.1438793818667525
1763368291194760400,7.033760498046875,4.327226070743799,-5.021927998548746,-2.3472508161500096
1763368291204785700,7.04378564453125,2.0501625972807407,-4.417811181554198,0.16434797389656305
1763368291214810600,7.053810546875,-3.191356831219792,-1.7081489027529955,0.33362712058499455
1763368291224835600,7.063835693359375,-0.5167214421361684,1.4302701190054417,-0.7201561756003647
1763368291234861600,7.073861572265625,-2.3107395330935714,4.059474713256955,-3.1327263630747795
1763368291244886500,7.083886474609375,-1.0490040260195732,5.276870143344998,-3.8878842208862303
1763368291254911700,7.093911865234375,0.6525158139824867,4.7121255517959595,-2.897096236991882
1763368291264936700,7.103936767578125,0.8600508954375982,3.2371015143066644,-1.9203655661530792
1763368291274961700,7.113961669921875,-0.07585574371218681,1.7592483908712864,-1.9361423964776097
1763368291284987600,7.123987548828125,-0.8771481607109308,0.509476877835393,-2.6121952995225786
1763368291295012600,7.1340126953125,-1.0409610048174858,-0.25760756461322304,-2.711566943378746
1763368291305037800,7.144037841796875,-1.5541455049991606,-0.37544425496459005,-1.8887337257012724
1763368291315062800,7.154062744140625,-1.86123869279325,0.2295680495649576,-0.7699846208695322
1763368291325087500,7.16408740234375,-1.7934408755913376,1.0160819996267556,0.050174409162625666
1763368291335113700,7.17411376953125,-1.930173112809658,1.5909329746484755,0.30658567666336894
1763368291345138400,7.184138427734375,-2.1697560681715604,1.8194108908891677,0.11978000643886626
1763368291355163600,7.19416357421875,-2.097735957099497,1.9701900658994913,0.011214198584109544
1763368291365188600,7.204188720703125,-1.9061568619281053,2.0230939730912447,-0.18768537566848098
1763368291375213600,7.214213623046875,-1.8854636179894209,1.9144646715462206,-0.21291202525310218
1763368291385239600,7.224239501953125,-1.3227335811331868,1.5676771867454051,-0.1355713036801666
1763368291395264500,7.234264404296875,-1.4793006918951868,1.0796639526993035,-0.24189006326049564
1763368291405289700,7.244289794921875,-1.9151482698962092,0.8068266702502965,-0.12272248963154851
1763368291415314700,7.254314697265625,-2.291538573539257,0.8098948256492614,0.5293307483404874
1763368291425339600,7.264339599609375,-2.0328464285597203,0.5268956301480532,1.1098702903926372
1763368291435365600,7.27436572265625,-0.9948609324216842,0.09357084862291812,1.454560802914202
1763368291445390600,7.284390625,-0.219542914634943,-0.29550621037483216,1.515864435791224
1763368291455415800,7.294415771484375,0.08556669812649488,-0.5646580823093652,1.2891247415199876
1763368291465440800,7.304440673828125,0.43149756609797474,-0.7371370479524135,0.9858708396278321
1763368291475465700,7.3144658203125,0.4515032661639154,-0.9844400761723517,0.7248464523084461
1763368291485491700,7.32449169921875,0.1328933897078037,-1.1509230162709951,0.6519065960429609
1763368291495516700,7.3345166015625,-0.1279037647269666,-1.6707032614558934,0.6266010360032319
1763368291505541600,7.344541748046875,-0.11259864356741309,-2.2961901987373827,0.4734621461242437
1763368291515566600,7.354566650390625,0.08886362078003585,-2.4016326869398354,0.22328853090405462
1763368291525591600,7.364591552734375,0.56180261981301,-1.8283049759626389,0.21582564767748116
1763368291535616500,7.374616455078125,1.297730949562788,-1.4720014747977257,0.5702011033892631
1763368291545642500,7.384642578125,2.0546903038382527,-1.1023293734937905,1.1734526818566025
1763368291555667700,7.394667724609375,2.8106559709012506,-0.908793006774783,1.426302676679194
1763368291565692700,7.404692626953125,3.6038393157243727,-0.7259604048997164,1.260448536003381
1763368291575717600,7.414717529296875,3.8452760822594163,-0.3373053707063198,1.2636248279519378
1763368291585742600,7.42474267578125,3.607615327131748,-0.08125672597289085,1.5079640379302204
1763368291595768600,7.4347685546875,3.2053532078683373,0.09639584291577338,1.7624147459477184
1763368291605793800,7.444793701171875,2.606679458710551,0.3179500973731279,2.059733412571996
1763368291615818800,7.45481884765625,2.496241061916947,0.3590297112584114,2.1631094697639344
1763368291625843700,7.46484375,2.419742928647995,0.1637035385131836,1.994806328500807
1763368291635868700,7.47486865234375,1.9717437250822782,0.22896599201858042,2.084996594774723
1763368291645894700,7.484894775390625,1.5346528690218924,0.22335808900892734,1.6970146375373005
1763368291655919600,7.494919677734375,0.8860527671784162,0.4797136077344417,1.0358188196234404
1763368291665944600,7.504944580078125,0.773181005758047,0.7435930922240018,0.7233784255824983
1763368291675969500,7.514969482421875,0.9734931502223014,0.637371436342597,0.6470443968340754
1763368291685994800,7.524994873046875,1.2349831092268229,0.3764478790491819,0.70405836969316
1763368291696020500,7.5350205078125,1.338091601523757,0.13051847727000712,0.9565979833923279
1763368291706045700,7.545045654296875,1.218765037940815,-0.04093114532530308,0.8925717936836183
1763368291716070700,7.555070556640625,0.7388040313165635,-0.08458557813465595,0.612832476761192
1763368291726095600,7.565095703125,-0.03996664767470211,-0.17768354854881763,0.4655449432589113
1763368291736120600,7.57512060546875,-0.6715997960936277,-0.4591624026149511,0.5345701102986932
1763368291746146600,7.585146484375,-0.853984069679305,-0.761851217970252,0.7316355279266834
1763368291756171800,7.595171875,-0.5636960323441773,-0.9772451962321996,0.7558611837752163
1763368291766196700,7.60519677734375,-0.2562199096471071,-0.9986644163578748,0.7551317004568875
1763368291776221700,7.6152216796875,-0.02577376207336783,-0.8855202677369117,0.9360312884427606
1763368291786246700,7.62524658203125,0.1886784783590585,-0.7107189966261387,1.2614008682921527
1763368291796272600,7.635272705078125,0.4261357468038797,-0.3647229544639587,1.2759148390740156
1763368291806297900,7.6452978515625,0.38647535206675526,0.06903437325954437,0.7939113668367266
1763368291816323000,7.655322998046875,0.08667122530229389,0.08105565044283866,0.3476901327289641
1763368291826348000,7.66534814453125,0.16950900992155074,-0.38124738828539845,0.030536446430534124
1763368291836373000,7.675373046875,0.96823654486835,-0.8144868296146393,-0.27552213761880995
1763368291846399000,7.68539892578125,1.8652422293461859,-0.8906886102855205,-0.524942304123193
1763368291856424200,7.695424072265625,2.449493923789263,-0.8295750931531191,-0.6982204573199152
1763368291866449200,7.70544921875,2.6627386150628327,-0.7611924618005752,-0.7375450442314148
1763368291876474000,7.71547412109375,2.6672856108427045,-0.6177934601694345,-0.6966593454830348
1763368291886498800,7.725498779296875,2.267144136995077,-0.4952583828687668,-0.559493393022567
1763368291896525000,7.735525146484375,1.6033908896833657,-0.2783516619563103,-0.3436424647733569
1763368291906550000,7.745550048828125,0.9427269136238843,0.10384732796549796,-0.2001011320620775
1763368291916575000,7.755574951171875,0.3020108430285007,0.5666659150004386,-0.10937135208398104
1763368291926600000,7.765599853515625,-0.20069500630199907,0.9184919784903526,0.3367581120871007
1763368291936625000,7.775625,-0.5359018703591079,1.2064666243165731,1.060483159150183
1763368291946651000,7.78565087890625,-0.6716039608120918,1.6049901415735481,1.7201050057455896
1763368291956676000,7.795676025390625,-0.728503075119853,1.8781927502036093,2.140362069774419
1763368291966701000,7.805701171875,-0.7475485518515109,1.945691584458947,2.143933936911821
1763368291976726000,7.81572607421875,-0.5151742126941681,1.9938024121552704,1.8533724894627928
1763368291986751000,7.8257509765625,-0.17779460770785807,2.1229788271665573,1.3451478036455808
1763368291996777000,7.83577685546875,0.06625204906463622,2.1761551215589043,0.47493470289483664
1763368292006802200,7.84580224609375,0.08515139532387256,2.0810902349859477,-0.6429151150096207
1763368292016827100,7.8558271484375,-0.14091361455619333,1.9180536359488962,-1.7590423469051717
1763368292026852000,7.86585205078125,-0.5697833163686097,2.0114193173885346,-2.7449749997228383
1763368292036876800,7.875876708984375,-0.9559615851849317,2.645740718510747,-3.4786411566942927
1763368292046903000,7.885903076171875,-1.2700737118303775,3.4994442907482384,-3.9584593938469883
1763368292056928000,7.895927978515625,-1.5309386708043515,4.22808063685894,-3.894605638095736
1763368292066953000,7.905952880859375,-1.3593207059048116,4.483540083527565,-3.270767637065053
1763368292076978000,7.91597802734375,-0.598686462508887,3.9169636003762482,-2.3107862948447466
1763368292087003000,7.9260029296875,0.6419155095130205,3.2168396475225687,-1.2116020875088869
1763368292097028900,7.93602880859375,1.9896148973375558,2.5230729547411204,-0.315201821578294
1763368292107054000,7.94605419921875,3.298091697320342,1.8755057030767202,0.22448680077791214
1763368292117079000,7.9560791015625,4.125726762321591,1.5058482148200272,0.5781942941002547
1763368292127104000,7.96610400390625,3.893940452185273,1.5575883389294147,0.835925631223619
1763368292137129000,7.97612890625,2.8838392805337905,1.931780548006296,0.9094380266800522
1763368292147155000,7.986155029296875,1.8057770639427004,2.2672253855377433,0.9269042713962494
1763368292157180200,7.99618017578125,0.9415309087723494,2.510676414504647,0.9078045802593231
1763368292167205000,8.006205078125,0.39906778020150957,2.621239898982644,0.9185127290174364
1763368292177230000,8.01622998046875,0.1475636470299214,2.596325237956643,0.9505752159714699
1763368292187255000,8.026255126953124,0.3326765418618917,2.412510054785013,0.9529216329671442
1763368292197281000,8.036281005859376,0.8231804236799478,2.114552944126725,0.7727187950737774
1763368292207306200,8.04630615234375,1.485894975593686,1.7831693646848201,0.5495177963227034
1763368292217331000,8.0563310546875,2.265731932109594,1.2862959478348492,0.3088929306924343
1763368292227356000,8.06635595703125,2.956343960252404,0.7119283724159002,0.3036820641763508
1763368292237380900,8.076380859375,3.2957559478491545,0.04546235901415348,0.2501293376870453
1763368292247406000,8.086406005859375,3.3085680831491944,-0.4689584049642086,-0.15955241018310187
1763368292257432000,8.09643212890625,2.708667422544956,-0.7865963676482438,-0.510922108207643
1763368292267457000,8.10645703125,2.135362507921457,-0.9227800310730934,-0.40351036575883625
1763368292277482000,8.11648193359375,1.4774936424732208,-0.7573661815106868,-0.21609613518193363
1763368292287507000,8.1265068359375,0.33877836586833,-0.504814146721363,0.20253508121073244
1763368292297532200,8.1365322265625,-1.124029748648405,-0.5222738155663014,0.690459906321019
1763368292307558100,8.14655810546875,-1.63070983537212,-0.9347457786768675,0.6076739249542356
1763368292317583000,8.1565830078125,-1.699948937423527,-1.1931214050531387,0.9186509684443473
1763368292327608000,8.166608154296876,-1.881647274571657,-1.420422094208002,1.5660253278851508
1763368292337633000,8.176633056640625,-2.114760449397564,-1.648855586785078,2.0707121949650347
1763368292347658000,8.186657958984375,-2.0685887730702754,-2.1060873135983944,1.839073768866807
1763368292357684200,8.196684326171875,-3.0664824973165987,-2.4758348182260987,1.6018787315547465
1763368292367709000,8.206708984375,-3.459619937621057,-3.1014573645859955,1.5756341370992362
1763368292377734000,8.21673388671875,-3.4065468113422392,-3.1268472419083118,1.6716173075608909
1763368292387758800,8.2267587890625,-3.902399945233762,-3.056746700721979,1.6624923363409936
1763368292397784000,8.2367841796875,-3.6586741909787057,-2.7375726145118473,2.0262040679357947
1763368292407810000,8.24681005859375,-3.2743837817355987,-2.6978882543772458,2.2750945114776493
1763368292417835000,8.2568349609375,-3.1114848376035686,-2.506228787446022,2.02510253643468
1763368292427860000,8.26685986328125,-2.9153201682075855,-2.0266431900054216,1.6880099316962063
1763368292437885000,8.276885009765625,-3.07277399867624,-1.2760323279738426,1.3602578406244517
1763368292447910100,8.28691015625,-2.839878265993297,-0.46094168724715706,0.9454822767466307
1763368292457936100,8.29693603515625,-2.4750761088132855,0.06883037512004375,0.6469182862363755
1763368292467961000,8.306961181640625,-2.226632386125624,0.27738544727265835,0.27651816291883585
1763368292477986000,8.316986083984375,-1.9181617724984883,0.05153729501366615,-0.14348667991459368
1763368292488011000,8.327010986328125,-2.3503613493859765,0.3921867154508829,0.039562048929184676
1763368292498036200,8.3370361328125,-2.447939387823641,1.2487193736344575,0.9715120594076811
1763368292508062200,8.347062255859376,-1.7718652958601713,1.5882359906494616,1.1808704107671975
1763368292518087200,8.357087158203125,-1.3759931698948145,1.5968284624278544,1.101174065978825
1763368292528111900,8.36711181640625,-1.5004144993335007,1.3559803094357252,0.8959813098661601
1763368292538136800,8.37713671875,-1.8243050926715134,1.0635054295808075,0.578830692307651
1763368292548162000,8.387162109375,-1.8839011909782886,0.7005249348700047,0.1982066966176033
1763368292558188000,8.39718798828125,-1.8540069879740475,0.20665771409869194,-0.16829072017297148
1763368292568213000,8.407212890625,-1.7265432220995425,-0.3843511995196342,-0.5392863251656294
1763368292578238000,8.417238037109374,-1.636986285293102,-0.9023176732808351,-0.8621711024619638
1763368292588263000,8.427262939453126,-1.6882888947680592,-1.3626356756716966,-1.1825094101458786
1763368292598288100,8.4372880859375,-1.4482093880608677,-1.622473191294074,-1.3926837540633976
1763368292608314000,8.447314208984375,-1.8475410068303346,-1.993463973981142,-1.4079194632485508
1763368292618339000,8.457339111328125,-1.8450246400952337,-2.4717361507356164,-1.3351438576340675
1763368292628364000,8.467364013671874,-2.000763483339548,-2.5973557500481603,-1.0081554444111882
1763368292638389000,8.477388916015625,-1.9844509387031197,-2.405392916256189,-0.7813830169141293
1763368292648414200,8.487414306640625,-1.8348145039871333,-2.195370694160461,-0.7230639528058469
1763368292658440200,8.497440185546875,-1.6501634545132517,-2.0689789414316415,-0.5763863678954542
1763368292668465200,8.507465087890624,-1.458177532106638,-2.0136065982997415,-0.468187420591712
1763368292678489900,8.51748974609375,-1.1854749819532036,-1.9874328771233558,-0.43167832949236035
1763368292688515000,8.52751513671875,-0.8042229174926877,-1.9246604868680237,-0.34334581991434093
1763368292698540000,8.5375400390625,-0.41979339203983546,-1.9007763379335403,-0.09908172099888324
1763368292708566000,8.54756591796875,-0.09308744902014732,-1.8181728735268115,0.07734481322616338
1763368292718591000,8.557591064453124,0.26887802342921496,-1.55815649420619,0.09244564398527144
1763368292728616000,8.567615966796875,0.8091621274605393,-1.1728694751411675,0.13900851158723235
1763368292738641000,8.577640869140625,1.5325395301297307,-0.7327233231633901,0.37526860613673924
1763368292748666000,8.587666015625,2.239861285533011,-0.34440146644711495,0.5688999576628208
1763368292758692000,8.597692138671874,2.916738802833855,-0.07893325146138667,0.5436282998926937
1763368292768717000,8.607717041015626,3.34110257152915,0.07175766074359416,0.24833690131232142
1763368292778742000,8.617741943359375,3.59237450338006,0.09103753075301646,-0.3449970942527055
1763368292788767000,8.62776708984375,3.5831364271745083,0.19730127221047877,-0.8581343942917883
1763368292798792200,8.637792236328124,3.4009961914777755,0.4575327555865049,-0.8123876653783023
1763368292808818200,8.647818115234376,3.4315248929932713,0.5395943682014942,-0.2081954450599849
1763368292818843600,8.65784375,3.4844892982006073,0.1749924097687006,0.6819212105564773
1763368292828868600,8.66786865234375,3.275635243101418,-0.3273176451772451,1.852047962860763
1763368292838893600,8.6778935546875,3.1576316717505453,0.03911795842349529,2.4768203221321103
1763368292848918500,8.68791845703125,3.656620181058347,1.471916719123721,1.898116617204994
1763368292858944800,8.69794482421875,2.8973420284464955,3.35232889894247,0.5971344107612967
1763368292868969500,8.707969482421875,0.9001990736916661,4.836338791441917,-0.25422669000327586
1763368292878994400,8.717994384765625,0.8597413910970091,4.5387283022642135,-1.1456633421771227
1763368292889019400,8.728019287109374,1.630384695070982,2.8388614901661873,-2.4895289970576764
1763368292899044600,8.738044677734376,1.0362243316844104,0.33152503373920916,-3.685876962941885
1763368292909069600,8.748069580078125,0.21921529011577368,-1.6804104164779186,-3.1795641020953656
1763368292919095600,8.758095458984375,-2.0062804931953546,-2.8217168786197897,-1.6064065842427313
1763368292929120500,8.76812060546875,-5.980063420641422,-3.5454391492038964,-0.857454303073138
1763368292939145500,8.7781455078125,-6.893755305373668,-3.8790865819245575,-0.7437609961368143
1763368292949170700,8.788170654296875,-4.013387500342726,-3.3759745629459617,-0.9350437387101351
1763368292959195600,8.798195556640625,-1.0119356936022639,-1.8057114513605832,-0.7988418089762329
1763368292969221600,8.8082216796875,-0.6944144891656935,0.4583575159728527,0.18229644917175172
1763368292979246600,8.81824658203125,-1.6148668079435824,1.715218110486865,0.7135670795336365
1763368292989271600,8.828271484375,-1.999897368029505,2.178567443397641,1.0210470746882259
1763368292999296500,8.838296630859375,-1.7782688792921602,2.4801526814252135,1.3279704588733612
1763368293009321500,8.848321533203125,-1.6246585725091396,2.6266514026373624,1.5865921689651905
1763368293019347500,8.858347412109374,-1.2964743736304343,2.5345903740555045,1.7679019451871514
1763368293029372400,8.868372314453126,-0.530087850318104,1.9602818353474138,2.0057279738791287
1763368293039397400,8.8783974609375,0.12879369930401444,0.8219260397046804,1.9471010128654538
1763368293049422600,8.888422607421875,0.3157118899922818,-0.21807108851671217,1.5134927382238208
1763368293059447600,8.898447509765624,0.2510932142831385,-0.6453425613522529,1.0304092156648634
1763368293069473500,8.9084736328125,-0.009718260937929152,-0.5935995146334171,0.7124995964325964
1763368293079498500,8.91849853515625,-0.41570385770387946,-0.5410907442390919,0.46594139523059125
1763368293089523500,8.9285234375,-0.5290754584051668,-0.3687725221157074,0.30394656033143397
1763368293099548700,8.938548583984375,-0.3102573509134352,-0.3113677963733673,0.12273776026591658
1763368293109573600,8.94857373046875,-0.11166114352159201,-0.36762218303680416,-0.03613777356892824
1763368293119599600,8.958599609375,0.200999615271762,-0.24774609581232068,-0.22209975951090455
1763368293129624600,8.96862451171875,0.38447161102890964,-0.16050152760148048,-0.3762877200514078
1763368293139649500,8.9786494140625,0.3798785110849887,-0.10478899272978305,-0.38245252629145976
1763368293149674800,8.9886748046875,0.4203483955740928,-0.0002846621602773666,-0.2500195937022567
1763368293159699500,8.998699462890626,0.404848044103384,0.06987608478069306,0.015584376492351292
1763368293169725400,9.008725341796875,0.44140407961700107,0.07546002239286899,0.3469504202775657
1763368293179750400,9.01875048828125,0.4670516945600509,0.0836947667747736,0.7103276592209935
1763368293189775400,9.028775390625,0.43368948665168133,0.1423842716306448,1.0655508178032933
1763368293199800600,9.038800537109376,0.44180265048053113,0.30689678843915463,1.4468423374913633
1763368293209825500,9.048825439453125,0.4568120400965214,0.6061188044667244,1.8030245503641664
1763368293219851500,9.0588515625,0.2631926530028693,0.8604203132718801,2.0997801762782036
1763368293229876500,9.06887646484375,-0.05613633150802925,0.9257587546229362,2.2632824931308626
1763368293239901400,9.0789013671875,-0.33595044896602627,0.7701268788844347,2.1736704651363192
1763368293249926700,9.0889267578125,-0.5758253730118275,0.5459791008025408,1.9016108890615402
1763368293259951600,9.09895166015625,-0.8708885157942772,0.22378478998839854,1.4447712303057312
1763368293269977600,9.1089775390625,-1.0725953294873236,-0.015637129592895507,1.050607223432511
1763368293280002600,9.11900244140625,-1.0617506948679685,-0.1524742884904146,0.7183027297534048
1763368293290027500,9.129027587890626,-1.010083635994792,-0.2331552604019642,0.3856270646743476
1763368293300052700,9.139052734375,-1.062391330859065,-0.409113300332427,0.1242765141405165
1763368293310077400,9.149077392578125,-1.0353846659898758,-0.4223322628676891,-0.011116875689476727
1763368293320103700,9.159103759765625,-1.0167062690049409,-0.36321722607612605,-0.24755159615352748
1763368293330128400,9.16912841796875,-0.9029974722385405,-0.36155952199697494,-0.31956235487535595
1763368293340153300,9.1791533203125,-0.6968687504500151,-0.34336277104914187,-0.25901626236736774
1763368293350178600,9.189178466796875,-0.48757188348677005,-0.29536767868697644,-0.2551828216843307
1763368293360203500,9.19920361328125,-0.25928170837052167,-0.24570903702676294,-0.21743615161404012
1763368293370229500,9.2092294921875,0.009096914169192314,-0.22419746244251726,-0.16793533086404203
1763368293380254500,9.21925439453125,0.14640578223168849,-0.3643710722863674,-0.08930164687111973
1763368293390279400,9.229279541015625,0.28402393543906507,-0.3817395557165146,0.03736526953727007
1763368293400304600,9.2393046875,0.39729887083284554,-0.2894558242946863,0.27775062732324
1763368293410329600,9.24932958984375,0.4965418468080461,-0.1641641417622566,0.4970104872331023
1763368293420354600,9.2593544921875,0.593227612581104,-0.07792085954844952,0.6857293706677854
1763368293430380500,9.269380615234375,0.5911850008375943,-0.06689502314329147,0.8539290515564382
1763368293440405500,9.279405517578125,0.565697362229228,-0.019188100072741507,0.9674696521490812
1763368293450430700,9.2894306640625,0.6109622989751399,0.049181671798229215,1.0785681202866135
1763368293460455400,9.299455322265626,0.7356969321466982,0.10056582207679748,1.1047264977633953
1763368293470480400,9.30948046875,0.9617169338412582,0.04311901075839996,0.9194451875619589
1763368293480506400,9.31950634765625,1.2041666768111288,-0.0893798266738653,0.7190723989516496
1763368293490531300,9.32953125,1.6164102379932999,-0.14434651161432266,0.6017743455216288
1763368293500556500,9.339556640625,1.9381940683104097,-0.2191156291335821,0.4553048504039645
1763368293510581500,9.34958154296875,2.1125879276640713,-0.3282891205579042,0.30466259964630005
1763368293520606500,9.3596064453125,2.243453610936552,-0.261184838578105,0.24113135384768247
1763368293530632400,9.369632568359375,2.273533545771241,-0.2527414198815822,0.18359613359346985
1763368293540657400,9.379657470703124,2.222413891647756,-0.27443361172974107,0.13918971337303518
1763368293550682600,9.3896826171875,2.231371397346258,-0.20640929229557514,0.2653323136463761
1763368293560707600,9.39970751953125,2.303826977226138,-0.0837117179095745,0.45319911029636856
1763368293570732500,9.409732666015625,2.1431571073204276,0.10692366667091846,0.5729758287996053
1763368293580758500,9.419758544921875,1.5517442890763282,0.32412147948443887,0.5811382385976612
1763368293590783500,9.429783447265624,0.942267990875244,0.6505109039008617,0.38378976624459027
1763368293600808700,9.43980859375,0.5284732547283172,0.9822235691666602,0.013664222084730863
1763368293610833700,9.449833740234375,0.5977813303627073,1.0325918204009532,-0.3094299601785838
1763368293620858400,9.4598583984375,1.1524614778846503,0.6679699882239103,-0.2803792222611606
1763368293630884600,9.469884521484374,1.8156588448792694,0.2843628850698471,0.22031550644263623
1763368293640909300,9.479909423828126,2.35180979462862,-0.005976736322045326,0.7338667941100895
1763368293650934500,9.4899345703125,2.7530776421576735,-0.22091946368515492,1.1173930871129036
1763368293660959500,9.49995947265625,3.0541940936297176,-0.33591362408697606,1.4410009179867804
1763368293670984400,9.509984375,2.7953812448799606,-0.5804881041258573,1.6585820310294628
1763368293681010400,9.520010498046876,2.267928126979619,-0.6007382804721594,1.7419672934636472
1763368293691035400,9.530035400390625,1.6996841490074992,-0.35972938396036624,1.7222215595081447
1763368293701060600,9.540060546875,1.2103018185652792,-0.04370294812619686,1.6851321843028066
1763368293711085600,9.55008544921875,1.2051540804132819,0.45687049228549,2.069911692237109
1763368293721110500,9.560110595703126,1.2432852197565138,0.8163181366950273,2.598757141278684
1763368293731136500,9.570136474609376,1.1179771706111727,1.1559855603575706,3.123473089300096
1763368293741161500,9.580161376953125,0.8066304170258343,1.6487831060707567,3.6430475827798245
1763368293751186700,9.590186767578125,0.4720552019357681,2.2791180679053067,4.187636690528691
1763368293761211600,9.600211669921874,0.039621816292405125,2.9075024801939726,4.655821188510954
1763368293771236400,9.610236328125,-0.7921960873514413,3.3272575860500333,4.751635724407434
1763368293781262600,9.6202626953125,-1.7133732132725417,3.397893549287319,4.66066892080307
1763368293791287300,9.630287353515625,-2.2334663237988948,2.9069933616280554,4.293218587201833
1763368293801312500,9.6403125,-2.0627783332258463,2.223941539606452,3.2597026376932856
1763368293811337500,9.65033740234375,-0.8786606111004948,1.9793284811228513,1.3799018677711485
1763368293821361400,9.660361328125,-0.47988078099489206,1.1852291904985903,-1.3544906553998588
1763368293831387400,9.670387451171875,-0.24962752564474938,0.7262158409655094,-3.266218887719512
1763368293841412400,9.680412353515624,1.1407125879019497,0.9773983409672975,-4.072136918692291
1763368293851437300,9.690437255859376,3.3164866011887786,0.8583686414390802,-4.410754541040957
1763368293861462300,9.700462158203125,6.626297962397336,0.17555413530468938,-4.6158138800323005
1763368293871487500,9.710487548828125,11.872951246654987,-0.4859299980312586,-4.1062236049503085
1763368293881513500,9.720513427734375,10.536170727729797,-0.3824129249334335,-2.1382367481835187
1763368293891538400,9.730538330078126,5.86402530414462,0.1007563762128353,-0.27563158934265375
1763368293901563400,9.7405634765625,2.784653514638543,1.1163041228324173,1.6062475942887364
1763368293911588400,9.75058837890625,0.6326264337725938,1.7657669789850712,2.774627210664749
1763368293921613600,9.760613525390625,-0.9112982675939798,2.045852332866192,3.020997926470637
1763368293931638500,9.770638427734376,-1.8548153817474842,1.8602385758399962,2.478953242507577
1763368293941664500,9.78066455078125,-2.8271166918367148,1.7160995694965122,1.822145138158649
1763368293951689500,9.790689453125,-3.6818507761657235,1.8751298555016516,1.4078393837496637
1763368293961714400,9.80071435546875,-4.447160610157251,2.0374509997457264,1.0785144904032349
1763368293971739400,9.810739501953124,-4.918845225214958,2.032163999253511,0.7677318004414438
1763368293981764400,9.820764404296876,-4.7282829058706755,1.9771634120434523,0.6714945090882479
1763368293991790300,9.830790283203125,-4.435703981119394,1.650613828629255,0.6958101813077926
1763368294001815300,9.840815185546875,-3.9258419033586978,1.3771721505463121,0.710569066761434
1763368294011840300,9.85084033203125,-3.3700796596884723,1.1672224091649055,0.8226284888856112
1763368294021865500,9.860865478515626,-2.714600319725275,1.0530687912404537,1.083200164001435
1763368294031890400,9.870890380859375,-1.6612836912035942,1.0196505057632923,1.5871623700685797
1763368294041916400,9.88091650390625,-1.054001542045921,0.8900105648934841,2.154101256791502
1763368294051941400,9.89094140625,-1.0629308445632457,0.6198802033156157,2.03386378890872
1763368294061966300,9.90096630859375,-1.1566976541496812,0.4350637341469526,1.6798605275101959
1763368294071991600,9.910991455078126,-1.1821911379769443,0.38841421117484565,1.4723730845890939
1763368294082016500,9.9210166015625,-1.482578982913494,0.33238778804838653,1.3754071867004036
1763368294092042500,9.93104248046875,-2.201929029762745,0.1849924102574587,1.4870333319738507
1763368294102067500,9.9410673828125,-2.6583266438394784,-0.03323533012568951,1.544016763564199
1763368294112092400,9.951092529296876,-3.3004324152275917,-0.09817337398231028,1.8318512702673673
1763368294122117600,9.96111767578125,-4.027353481853008,0.28236440472900864,2.3959653088279067
1763368294132142300,9.971142333984375,-3.6404517210677265,0.5105144041895866,2.528401456287503
1763368294142168600,9.98116845703125,-2.926842555958032,0.5379927782237529,2.485767306436598
1763368294152193300,9.991193359375,-2.631331961669028,0.7386328394681215,2.303254876426607
1763368294162218200,10.00121826171875,-2.8427225495085118,1.0229448711335658,1.9676064791470764
1763368294172243500,10.011243408203125,-3.0702389272406694,0.9073474841415882,1.3835709116727113
1763368294182268400,10.021268310546875,-5.700597659963369,1.762135929006338,1.6873234107367694
1763368294192294400,10.03129443359375,-4.389201757663488,3.2115602458149195,2.5687963027790186
1763368294202319400,10.0413193359375,-1.2473989386856554,3.1928111216813324,1.9202387249030173
1763368294212344300,10.05134423828125,-1.2646543171301483,2.5463275736004114,1.0837035834789275
1763368294222369500,10.06136962890625,-1.7416250558972357,1.6163415566712618,0.26004706671983
1763368294232394500,10.07139453125,-1.688309645295143,0.7448053906232118,-0.5389592851683497
1763368294242420500,10.08142041015625,-1.2863576148942113,0.0852104320347309,-0.9917570481222122
1763368294252445400,10.091445556640625,-0.834467249108851,-0.4655108948588371,-1.3461813844770192
1763368294262470400,10.101470458984375,-0.644068595893681,-0.7297557055294513,-1.6318384010106324
1763368294272495600,10.11149560546875,-0.8853355588197708,-0.8823036437779664,-1.726946103812009
1763368294282520300,10.121520263671876,-1.073243856523931,-0.781689306384325,-1.8175833832010626
1763368294292546600,10.131546630859376,-1.1954381575629114,-0.6211310801595449,-2.0341531272441147
1763368294302571300,10.1415712890625,-1.418616798351705,-0.6562333732008934,-2.171565309550613
1763368294312596200,10.15159619140625,-1.3997624602779746,-0.7828823155611753,-2.3497163294807075
1763368294322621400,10.161621337890624,-1.4104372912883758,-1.0911778648823498,-2.2928563781395552
1763368294332646400,10.171646484375,-1.2903881855845452,-1.6510177332550287,-2.34360310729742
1763368294342671400,10.18167138671875,-1.3218892392635344,-2.097034823092818,-2.129991336277127
1763368294352697300,10.191697265625,-1.4072624606445432,-2.2459803529351947,-1.9805650371804833
1763368294362722300,10.201722412109374,-1.2697013713866472,-2.1667577631384134,-2.0025911371581255
1763368294372747500,10.21174755859375,-1.0678656706169247,-2.0081331353247163,-2.0574235281944273
1763368294382772500,10.2217724609375,-1.0784908172667025,-1.817420593854785,-1.8379878733262418
1763368294392797400,10.23179736328125,-0.7091977784082293,-1.552423503512144,-1.439957254152745
1763368294402823400,10.241823486328125,-0.2769315660253167,-1.3902233552992342,-0.7872239980272948
1763368294412848400,10.251848388671876,0.2177379110395908,-1.2233499545782804,-0.16823840546384453
1763368294422873600,10.26187353515625,0.5358122193142771,-1.234376375505328,0.06542538898214698
1763368294432898600,10.271898681640625,0.324041107724607,-1.0809282735466956,0.518114503929764
1763368294442923300,10.28192333984375,0.21792495804429052,-0.7950292649507522,1.2711112381845713
1763368294452949500,10.291949462890624,0.2846870024576783,-0.5248439583152532,2.0205067330770192
1763368294462974200,10.30197412109375,0.5054071441784501,-0.4489671718150377,2.572292620462179
1763368294472999400,10.31199951171875,0.6682078886330127,-0.6436667370945215,2.6514345462381836
1763368294483024400,10.3220244140625,-0.2011062174513936,-0.9050602499872445,2.627460088671744
1763368294493049300,10.33204931640625,-0.35753216617703437,-1.1691454861819743,2.0378055122718215
1763368294503075300,10.342075439453126,-0.6260594764724373,-1.3460545432269573,1.2396513932988047
1763368294513100300,10.352100341796875,-1.4695958749607205,-1.3376625624567269,0.5446589581146836
1763368294523125500,10.36212548828125,-1.451742822884023,-1.1782067445158957,0.11422317602932452
1763368294533150500,10.372150390625,-0.5810673653185368,-1.5796557938307523,0.1921397977940738
1763368294543175400,10.382175537109376,0.9239467367649078,-2.409981413090229,0.4925803958311677
1763368294553201400,10.392201416015626,2.997426204486191,-2.6377292614907026,0.7044302717454731
1763368294563226400,10.402226318359375,3.726425246429443,-1.566594067683816,0.69201502680853
1763368294573251600,10.41225146484375,1.6584128119423984,1.0098200166225433,0.4251081573218107
1763368294583276500,10.422276611328124,0.6518728399038315,4.472178731557727,-0.7757998099543154
1763368294593301200,10.43230126953125,5.870434002143145,8.24526811400652,-2.5188480305224656
1763368294603327500,10.442327392578125,8.843604594033955,10.373732094585895,-3.2718343895137307
1763368294613352200,10.452352294921875,2.642001239721477,8.038118816998601,-3.856966520053148
1763368294623377400,10.46237744140625,-4.27613155106157,1.8021838617563246,-3.911400121030211
1763368294633402400,10.47240234375,-6.754257987356185,-3.8868262362658976,-2.333138996428251
1763368294643427300,10.48242724609375,-7.1502037630796424,-6.678626115527749,-1.7901847964048385
1763368294653453300,10.492453369140625,-6.532136162143945,-7.354853059965372,-2.6635820801496504
1763368294663478300,10.502478271484375,-4.813006723432243,-6.365922102114558,-3.6848739233791825
1763368294673503500,10.51250341796875,-2.238951477211714,-4.052742774653434,-3.9231414122283454
1763368294683528400,10.522528564453125,-0.7186568038880825,-0.531664744246006,-2.1583846331991254
1763368294693553400,10.532553466796875,-1.4429529288373886,2.2562422192305327,0.2637101192720234
1763368294703578400,10.542578369140625,-2.5837434042811394,4.147024986416101,3.0333272466897965
1763368294713604400,10.552604248046874,-2.34288078437224,5.4024722070008515,5.010596457195282
1763368294723629600,10.562629638671876,-1.4059296046055854,5.0466339852601285,5.335681813275814
1763368294733654500,10.572654541015625,-1.6516006477095186,3.989605642738938,5.669397050535679
1763368294743679500,10.582679443359375,-1.2090076140362769,1.8830279152750968,4.014364236420393
1763368294753705500,10.59270556640625,0.10458828252591192,-0.427211267080903,1.679994383022934
1763368294763730400,10.60273046875,1.0165116232156752,-1.8210948984533548,0.46592108309492464
1763368294773755400,10.61275537109375,0.9598901568055153,-2.2669378007680177,-0.15097455145195127
1763368294783780400,10.6227802734375,0.04390117411203682,-2.0586504396408793,-0.3988337522499263
1763368294793805300,10.632805419921874,-0.7080967583637684,-1.2273282105594874,-0.12231281285211443
1763368294803830300,10.642830322265626,-1.2914578606426714,-0.514663340562582,0.21227584624141455
1763368294813856300,10.652856201171875,-1.8062030342698097,0.21110475663542747,0.5139426250725985
1763368294823882000,10.662882080078125,-2.2169243543207644,0.6618161417692899,0.552180731921643
1763368294833907000,10.672906982421875,-2.243722491005808,1.0166583382099865,0.9027480275221168
1763368294843931600,10.682931640625,-1.9102572829842566,1.3322808694183825,1.4705644277319312
1763368294853956600,10.69295654296875,-1.2246493467390536,1.8144892165780067,2.17843402627632
1763368294863982600,10.702982666015625,-0.04706221369253471,2.096898629492521,2.778278718909621
1763368294874007800,10.7130078125,0.957781201827526,1.789012245494127,2.974717821332812
1763368294884032800,10.72303271484375,1.4519471132844686,1.3063655069172382,2.9377564564213157
1763368294894057700,10.7330576171875,1.5481231759697198,0.7661188122868537,2.7490102465882895
1763368294904082700,10.743082763671875,1.2523451629161835,0.12031155603229998,2.2105600799858567
1763368294914108700,10.753108642578125,0.8014028916358947,-0.42880467375218867,1.7340163344591855
1763368294924134000,10.7631337890625,0.5959118832290172,-0.873290900760889,1.181882948810607
1763368294934158800,10.773158935546874,0.42154724996984,-1.0799340018123387,0.5452713909246028
1763368294944183800,10.783183837890626,0.22750870588235556,-1.144649342828989,0.021725071204453706
1763368294954208800,10.793208740234375,0.051391091476008295,-1.1397025340765714,-0.522927018778026
1763368294964234800,10.80323486328125,-0.06477094366140664,-1.0949719964683056,-1.0605088781133294
1763368294974260000,10.813260009765624,-0.016453706672787664,-0.9939286200076342,-1.476676188610494
1763368294984285000,10.823284912109376,0.20899507100507617,-0.9400234268188477,-1.7714184288755057
1763368294994310000,10.833309814453125,0.7372212191045284,-0.9767851775050163,-1.63777363627851
1763368295004334600,10.84333447265625,1.7894788400925694,-0.8086065394043922,-0.9975132004961371
1763368295014360600,10.853360595703125,3.1548247976362704,-0.3682096275359392,-0.13734101676642893
1763368295024385800,10.8633857421875,4.735540914174914,0.22198387804627417,0.4996460964336991
1763368295034410800,10.87341064453125,6.347262994351983,0.7128215218633412,1.0697004848286509
1763368295044435700,10.883435791015625,7.606414914673566,1.0778490122318267,1.5886334655344485
1763368295054460700,10.893460693359375,8.068457256639004,1.5361118356585501,1.9340854639478027
1763368295064486000,10.90348583984375,7.9224366743326184,1.8409563677430152,2.0854196424923837
1763368295074512000,10.913511962890626,7.4932766112715,1.6796014381825923,2.337873039212823
1763368295084536800,10.923536865234375,6.631080520498752,1.3323176942974329,2.455359016430378
1763368295094561800,10.933561767578125,5.495712800756096,1.4938567482531069,2.695345584157109
1763368295104586800,10.943586669921874,4.025748384743928,2.0433108316898343,3.1826465782806275
1763368295114612000,10.953612060546876,2.0852835950225592,2.3149171110391618,3.6583746235102415
1763368295124638000,10.963637939453125,0.12297405323982238,2.1892788070261475,3.7518040178358554
1763368295134663000,10.973662841796875,-1.372504158735275,1.7591484376281499,3.4820442431360483
1763368295144687900,10.98368798828125,-1.5068500853389502,1.9655226586103438,2.9113123938709498
1763368295154712600,10.993712646484376,0.10976968548549339,2.324965626844764,0.9782086344368756
1763368295164737800,11.00373779296875,2.663141350644827,1.9156980127334593,-1.2784208305455744
1763368295174763800,11.013763671875,6.457572211807966,1.593813498520851,-2.6716888142377138
1763368295184788700,11.023788818359375,7.7262641138911246,1.7736796518057583,-2.339543602773547
1763368295194813700,11.033813720703124,6.502336067163944,2.0537562378585337,-1.0756873041532933
1763368295204838700,11.043838623046875,4.886676647537946,2.6473604286670684,-0.0847729174003005
1763368295214864000,11.05386376953125,3.325339185208082,3.7330472949177023,0.9271958016887306
1763368295224889900,11.063889892578125,0.6680363314583897,5.203994292226433,1.86771475693956
1763368295234914800,11.073914794921874,-2.8267510733947154,7.774595890861749,1.9782232963599264
1763368295244939800,11.083939697265626,-5.662226135993004,10.512502267372607,2.856657843619585
1763368295254964700,11.09396484375,-7.715134817111491,9.758150465247034,2.484312723714113
1763368295264990000,11.103989990234375,-6.9927955253183836,7.635536964261531,1.6210399436205625
1763368295275016000,11.114015869140625,-5.627712456494569,6.106240653836727,1.855819736484438
1763368295285041000,11.124041015625,-4.257587009589374,4.8055491009026765,2.806797249646485
1763368295295065900,11.13406591796875,-3.443032083174586,5.05177894693315,3.9679575822934505
1763368295305090800,11.1440908203125,-0.04522387408316135,6.935929144236445,5.545477240878343
1763368295315115800,11.15411572265625,2.656105460658669,6.963154420292377,3.9774493409991263
1763368295325140700,11.164140625,-0.12249240720272063,6.883499284297227,3.2101036172658204
1763368295335166700,11.174166748046876,-3.0630905167907474,6.644670069912076,2.4417719512350855
1763368295345191700,11.184191650390625,-5.094858210203051,5.974119417545199,1.2411901471734046
1763368295355216600,11.194216552734375,-6.742890205645561,4.32750488768518,0.3305146876528859
1763368295365241900,11.204241943359374,-6.596319003719091,2.1949194432616235,-1.0254746088068931
1763368295375266800,11.214266845703126,-6.1347781815350055,0.6783762314260006,-2.097056158141792
1763368295385292800,11.224292724609375,-6.131041917616129,-0.6676303810060024,-2.2243666331507264
1763368295395317800,11.23431787109375,-5.076705298396945,-1.2108838562369346,-1.6705580077663063
1763368295405342700,11.2443427734375,-4.3100569092780345,-1.513743351984024,-1.3097221238687633
1763368295415368000,11.254367919921876,-4.653816570690274,-2.138048386004567,-1.324546183513105
1763368295425393000,11.264392822265625,-4.54949577999413,-2.0012153187602757,-0.6174043147213757
1763368295435419000,11.2744189453125,-3.513115673226118,-1.2458528782874345,-0.18169176127687095
1763368295445443800,11.28444384765625,-3.7603830456107854,-1.123574406096339,-0.35431568834856153
1763368295455468800,11.29446875,-4.306947837346792,-1.1892238130927084,-0.67653089582026
1763368295465493800,11.30449365234375,-4.394744194221496,-1.0493746128976345,-0.7342989019170403
1763368295475518700,11.314518798828125,-4.756650922220945,-1.4024556448847054,-1.0086768379367888
1763368295485544700,11.324544677734375,-4.977840435019135,-1.8912369406938552,-0.8974338467620313
1763368295495569700,11.334569580078124,-4.35726932682991,-1.7459908498913048,-0.6384628848411142
1763368295505594600,11.3445947265625,-4.028134987619519,-1.3977496591508387,-0.650858256033808
1763368295515619800,11.354619873046875,-4.973713125956058,-1.5605489423006773,-0.326213775588572
1763368295525644800,11.364644775390625,-5.272911176586151,-1.732131835886836,0.42600218355208636
1763368295535669800,11.374669677734374,-4.338514357477426,-1.7081044790893791,1.193354775417596
1763368295545695700,11.38469580078125,-4.316470867973566,-2.407590134039521,1.4772789768092334
1763368295555720700,11.394720703125,-4.155758327969909,-2.854938180220127,1.50011756221354
1763368295565746000,11.404745849609375,-3.78635393769145,-2.9784394722044465,1.252489539822936
1763368295575771000,11.41477099609375,-3.693916477012634,-3.223250683608651,0.9585112696677446
1763368295585795800,11.4247958984375,-3.734976801675558,-3.45718043551445,0.8678186068296432
1763368295595821800,11.43482177734375,-3.797522981959581,-3.6365702034592626,0.9968249259710311
1763368295605846800,11.4448466796875,-3.6174060687839984,-3.5681454865306614,1.1740962404571473
1763368295615871700,11.454871826171875,-3.106236415556073,-3.3999592496454714,1.1684012436859308
1763368295625896700,11.464896728515624,-2.298876661342382,-3.2621436011046168,1.1788248764142393
1763368295635921700,11.474921630859376,0.6815998696476221,-3.0442858630776404,1.3716361437290907
1763368295645947600,11.48494775390625,15.234492210578917,-2.772567940047383,1.0169295563668013
1763368295655972600,11.49497265625,22.196774524211882,-0.2539665777623653,-0.157972082189098
1763368295665997800,11.504997802734374,-1.0692103632241488,6.838226310375332,-0.8942036326691508
1763368295676022800,11.515022705078126,-11.244031412315367,9.273136413016914,-4.285347123174369
1763368295686047700,11.5250478515625,-5.542452924621105,8.312071367213129,-2.014946030209958
1763368295696073700,11.53507373046875,6.925012613424658,5.346317189058661,1.0587808852769434
1763368295706098700,11.5450986328125,1.1789274600058792,1.5639076050788163,-3.6289851551577446
1763368295716124000,11.5551240234375,-6.2278656305551525,-0.6793436151534319,-8.532155549117922
1763368295726148900,11.56514892578125,-1.2130565241008997,-2.5341028827995062,-4.8408548075616356
1763368295736173800,11.575173828125,0.8729185603171586,-2.559727737921476,-0.007109685874730348
1763368295746199800,11.58519970703125,-2.6512597741931674,-0.43849253955185413,-1.1056916895337403
1763368295756224800,11.595224853515624,-0.14533961430490017,2.0941694967895743,-2.946900132341683
1763368295766250000,11.60525,-0.9664514150172472,4.012533513861895,-3.3105934514969584
1763368295776274700,11.615274658203125,-2.124060777184367,5.613814279523491,-1.5053671533048152
1763368295786299600,11.625299560546875,-1.1088947233587503,6.35299423148036,-0.3007380466137081
1763368295796324600,11.63532470703125,-0.4665431605160236,5.747267056679726,-0.27761268015727397
1763368295806350600,11.6453505859375,0.8629320038318633,4.036950746759772,-0.014024799025431274
1763368295816375800,11.655375732421875,0.9129676621109246,2.079722453764081,0.14798998268321156
1763368295826402300,11.66540234375,0.15391981112360953,0.3673796064525842,-0.23427359690740704
1763368295836427300,11.67542724609375,0.16614917809963226,-1.0896546008378267,-0.6865364492669701
1763368295846452200,11.6854521484375,-0.022896891462802885,-1.903546387168765,-0.6796379949901252
1763368295856478200,11.695478271484374,-0.7467138545930385,-2.0250918689101933,-0.34768801383711395
1763368295866503200,11.705503173828125,-1.188777238368988,-1.5337749171435833,0.042316973660513756
1763368295876528400,11.7155283203125,-1.077346907928586,-0.7387970901191234,0.08319310086295008
1763368295886553000,11.725552978515625,-1.3817799366027117,0.2129460005879402,0.02140672597028315
1763368295896578000,11.735578125,-1.505147373074293,1.2097183195888996,-0.12866174348741768
1763368295906604000,11.74560400390625,-1.9242466453701257,2.315410447514057,-0.5046524533536285
1763368295916629000,11.75562890625,-2.142632791185379,2.8896535197705027,-1.164913766896352
1763368295926654200,11.765654296875,-1.8551929828882217,2.7985744879633185,-1.7082164150312542
1763368295936679200,11.77567919921875,-2.094924406810105,2.190315164336562,-1.674376104749739
1763368295946704100,11.7857041015625,-1.8377716002270579,1.5618611939430236,-1.256331602203846
1763368295956730000,11.795730224609375,-1.8728791539654135,1.275350775450468,-1.0959343386944382
1763368295966755000,11.805755126953125,-1.8894757762402294,1.009755134692788,-1.1678903715543447
1763368295976780300,11.8157802734375,-1.7478604431554674,0.5755740285992622,-1.3800449295036494
1763368295986805200,11.82580517578125,-1.7618258401438593,0.13306231653392314,-1.3413000421762467
1763368295996830200,11.835830322265625,-1.789704319411516,-0.28788579849898815,-1.200126388444379
1763368296006856200,11.845856201171875,-2.0011798090554773,-0.38481647894382476,-0.26014241685308515
1763368296016881200,11.855881103515625,-1.9936733789481222,-0.3246867121517658,0.5445747869625688
1763368296026906400,11.86590625,-1.770814763893932,-0.011966916647553442,1.4601757201865315
1763368296036931300,11.875931396484376,-0.9118214146852492,0.11358546264767647,1.914744073009491
1763368296046956000,11.8859560546875,0.19599267382994293,0.1881365535020828,1.8849581526853143
1763368296056981000,11.89598095703125,2.263647527050972,0.2775754168868065,2.0117679846957324
1763368296067007000,11.906007080078124,3.7702702333748337,-0.01223112054169178,1.731976937586069
1763368296077032200,11.9160322265625,3.87734762930274,-0.2363952652364969,1.31344874317646
1763368296087057200,11.92605712890625,3.4411703809559344,-0.8261550555765629,1.0368939015090466
1763368296097082000,11.93608203125,3.083850980746746,-1.5866694719851016,0.9957488211721182
1763368296107107000,11.946107177734374,2.7211563172399997,-2.1738328160911795,0.9764451318956912
1763368296117133000,11.956133056640626,1.718905274567008,-2.323831654378772,1.5041957714378833
1763368296127158300,11.966158203125,1.4219821831315755,-2.271113040626049,2.075703281250596
1763368296137183200,11.976183349609375,2.445551323643327,-2.551072137778997,2.614578103005886
1763368296147208200,11.986208251953125,3.5870004091262815,-2.948359975761175,2.8546403663173314
1763368296157233200,11.996233154296876,3.5775001748532054,-2.953512536218762,2.924392532457411
1763368296167259100,12.006259033203126,1.6512636708401143,-2.5743735183894634,3.3343671257942913
1763368296177284400,12.016284423828125,-1.5409781265206635,-1.696581214556098,4.540397404520213
1763368296187309300,12.026309326171875,-4.840360302042961,-0.9115268156528472,5.036750889149308
1763368296197334000,12.036333984375,-5.986707096439599,-0.655862786322832,2.330269724602252
1763368296207359000,12.04635888671875,-5.111117855608463,-0.4792874912768602,-0.6570715775907039
1763368296217385000,12.056385009765625,-2.100771525403112,0.4784633154124021,-2.514424953383207
1763368296227410200,12.06641015625,1.4900629089280961,1.0757254442065953,-3.853122704106569
1763368296237435100,12.07643505859375,3.8929730684578416,2.3327748392909764,-2.278264227554947
1763368296247460000,12.086460205078126,6.095332306331396,3.436194930630922,-0.28310703978985546
1763368296257485000,12.096485107421875,11.6959743850708,5.02960335548222,1.5694795599922537
1763368296267511000,12.106510986328125,20.1867183118701,6.434948876589536,3.9396471413493153
1763368296277536300,12.116536376953125,21.401752273523805,5.260480734080076,4.831790918879211
1763368296287561200,12.126561279296874,13.080547751784325,2.189059611317515,2.9594577083587645
1763368296297586200,12.136586181640626,5.742818845099211,0.5807587377607822,0.9066171240404247
1763368296307611100,12.146611083984375,0.267936066403985,-0.015908932271599768,-0.6499756279803812
1763368296317637000,12.15663720703125,-4.103734126222133,-0.4113742310017347,-2.5200246730864047
1763368296327662300,12.166662353515624,-7.493828984457254,-1.1828449257105589,-3.9660403504952786
1763368296337687300,12.176687255859376,-9.258209477519989,-2.6751263874709603,-4.306138274529576
1763368296347712300,12.186712158203125,-9.871374108844995,-4.143784397059679,-3.447178389199078
1763368296357737000,12.196737060546875,-9.244290842282771,-4.5949832734495395,-2.0034794642999767
1763368296367763000,12.206762939453125,-8.137550666609407,-3.507953175896406,-0.48408612373024223
1763368296377788200,12.2167880859375,-6.328714361226559,-1.9549884051144122,0.2103812646664679
1763368296387813000,12.226813232421875,-4.546734206326305,-0.5225900419086218,-0.26380831894949075
1763368296397838000,12.236838134765625,-2.430850890378654,1.5079296972692011,-0.9065105949260294
1763368296407863000,12.246863037109375,-0.30201895326972006,3.4132565381139517,-1.9219623338252305
1763368296417888300,12.25688818359375,2.052201994153857,4.099526737660169,-2.3330407967507836
1763368296427914200,12.266914306640626,5.451544573205709,3.6662013716131447,-1.5330946797944605
1763368296437939200,12.276939208984375,10.582689317798614,3.6361072621226307,-0.26855755930319425
1763368296447964200,12.286964111328125,13.184700200176238,3.928564021798968,1.1566671128809451
1763368296457989000,12.296989013671874,10.336072518277168,4.421617588099837,2.4889684405654666
1763368296468014300,12.307014404296876,5.806224272561073,5.102894217142462,2.7694512693315745
1763368296478040300,12.317040283203125,1.823257629445195,5.52438944466412,2.081903451064974
1763368296488065300,12.327065185546875,-1.110698557910323,4.964572372645139,0.6858544583521783
1763368296498090200,12.33709033203125,-2.4291718512505294,3.878997734597325,-1.1292413458168507
1763368296508115000,12.347114990234376,-2.7687323074072596,3.0371885982930658,-2.5022587147712705
1763368296518140200,12.35714013671875,-2.6151275535821914,1.9773177258223293,-2.9936475627303123
1763368296528166100,12.367166259765625,-1.553399070546031,1.480115223148465,-2.276908721292764
1763368296538191000,12.377191162109375,-0.20649404796957968,1.5390759461611507,-1.0563795232236384
1763368296548216000,12.387216064453124,1.3071867601722478,1.6400480109512805,-0.312305515614897
1763368296558241000,12.397240966796875,3.169505064895749,2.2405127351790664,0.05944748361632227
1763368296568266200,12.407266357421875,5.2764159698367115,3.30410058234632,0.21348522203117606
1763368296578292200,12.417292236328125,7.397504453212022,4.339278327587246,0.24044834001958368
1763368296588317200,12.427317138671874,10.935430742567776,5.452492083188891,0.41062034389451146
1763368296598342100,12.437342041015626,13.948456374984978,6.264083775883913,0.5873756716825068
1763368296608367000,12.4473671875,13.088168748182058,6.108163146331906,0.9841232653081416
1763368296618392300,12.457392333984375,8.111833457028865,4.834766427558661,1.0745037934571504
1763368296628418300,12.467418212890625,3.404973278415203,3.3714667301326986,-1.593824604436755
1763368296638443300,12.477443359375,1.2657491266295313,3.56650648715198,-2.7590345047354696
1763368296648468200,12.48746826171875,0.7603541112802922,6.2495584069252015,-1.0623596205465495
1763368296658493000,12.497492919921875,-2.2655016304850575,7.172898409968614,-1.7369531185634433
1763368296668518100,12.50751806640625,-6.056703592729568,5.58125465670228,-3.4650352406680582
1763368296678544100,12.517544189453124,-6.999308268213272,4.2592917676806445,-3.444914243659377
1763368296688569000,12.527569091796876,-7.0463774779021735,2.9974031158715486,-2.943341563077271
1763368296698594000,12.537593994140625,-7.457607331997155,2.6772926255941387,-1.5170453161388635
1763368296708619000,12.547618896484375,-7.159595860803127,2.5470336760431525,-0.8383667407654225
1763368296718644200,12.557644287109374,-5.211649190893769,2.6746675377875566,-0.06928337958455086
1763368296728670200,12.567670166015626,-1.0137561870276928,3.2543659528404474,1.5298181423418222
1763368296738695200,12.577695068359375,2.6289970889806744,4.1504596370399,2.5312767194628716
1763368296748720000,12.58772021484375,3.7729309770166872,5.095483648625016,3.3495342997878788
1763368296758745000,12.5977451171875,0.9426210420966148,5.048460616165399,2.7307985903322693
1763368296768770300,12.607770263671876,-2.5425901406377553,4.497290376460552,2.14546056195721
1763368296778796300,12.61779638671875,-7.311677935105561,3.3642402860105034,2.4263661461800337
1763368296788821200,12.6278212890625,-8.77000452029407,1.0914958447903393,3.1679484831035136
1763368296798846200,12.63784619140625,-6.1339849853307005,0.2691612242847681,-1.3513278074547648
1763368296808871200,12.64787109375,-5.712673297682405,0.09337211118042468,-3.16663097076416
1763368296818896100,12.657896240234376,-5.496324210652709,0.19609540355205535,-1.369617789644003
1763368296828920800,12.6679208984375,-3.5918051790595054,0.3178413763016462,-1.0416856658302247
1763368296838945800,12.67794580078125,-2.898351790010929,0.25387480782568456,-0.5614388280019164
1763368296848971000,12.687970947265624,-4.818776246744394,0.29696108535826204,-0.8342527295753359
1763368296858995700,12.69799560546875,-5.490948362833262,1.5296896936565636,0.2800625575274229
1763368296869020700,12.708020751953125,-6.215425835698842,1.4888605474010108,0.7072196102030575
1763368296879046700,12.718046630859375,-5.551445793893933,1.2338435838028787,0.3659406596906483
1763368296889071600,12.728071533203124,-5.457320818519592,0.3227256412118673,0.5890761919900774
