time,seconds_elapsed,z,y,x
1763368284237298400,0.07629833984375,0.551989734172821,0.8418612480163574,0.8623948097229004
1763368284247323400,0.086323486328125,0.8857030272483826,1.0890460014343262,0.8494057655334473
1763368284257348400,0.096348388671875,1.1960428953170776,1.4215848445892334,0.8234215378761292
1763368284267373300,0.106373291015625,1.376469373703003,1.8201582431793213,0.8320589661598206
1763368284277398300,0.116398193359375,1.3596127033233643,2.1656415462493896,0.8570812344551086
1763368284287423500,0.126423583984375,1.1560227870941162,2.289997100830078,0.9116656184196472
1763368284297448400,0.136448486328125,0.8465784192085266,2.1369383335113525,0.981038510799408
1763368284307473400,0.146473388671875,0.5645432472229004,1.7923814058303833,1.100189447402954
1763368284317498400,0.156498291015625,0.3394368290901184,1.3899794816970825,1.2363864183425903
1763368284327523600,0.166523681640625,0.08720244467258453,1.065435528755188,1.3017442226409912
1763368284337549600,0.176549560546875,-0.13143935799598694,0.8328768014907837,1.1598312854766846
1763368284347574500,0.186574462890625,-0.2695854902267456,0.517608642578125,0.995517909526825
1763368284357599500,0.196599609375,-0.3000301420688629,0.294195294380188,0.9428938627243042
1763368284367624400,0.20662451171875,-0.28849276900291443,0.1603405475616455,0.8673314452171326
1763368284377649400,0.2166494140625,-0.2699544131755829,0.2780437767505646,0.7063827514648438
1763368284387674400,0.22667431640625,-0.20273463428020477,0.6050277352333069,0.5129709243774414
1763368284397699300,0.23669921875,-0.0780281275510788,1.1421966552734375,0.2889255881309509
1763368284407724300,0.246724365234375,0.08731555938720703,1.7169528007507324,0.03749362751841545
1763368284417749500,0.25674951171875,0.20686841011047363,1.8773939609527588,-0.24837626516819
1763368284427775500,0.266775390625,0.19221089780330658,1.5653783082962036,-0.5473216772079468
1763368284437800400,0.276800537109375,0.05355576053261757,1.106283187866211,-0.8356043696403503
1763368284447825400,0.286825439453125,-0.17862501740455627,0.6307113170623779,-1.12822687625885
1763368284457850400,0.296850341796875,-0.4310097098350525,0.29961079359054565,-1.4134516716003418
1763368284467875600,0.30687548828125,-0.6628541350364685,0.28305500745773315,-1.5540072917938232
1763368284477900500,0.316900634765625,-0.8352591395378113,0.4024435877799988,-1.5519061088562012
1763368284487925500,0.326925537109375,-0.8771874308586121,0.6949551105499268,-1.4082456827163696
1763368284497950200,0.3369501953125,-0.7927922606468201,1.1501682996749878,-1.1715136766433716
1763368284507975400,0.346975341796875,-0.7271192669868469,1.5889123678207397,-0.9121564030647278
1763368284518001400,0.35700146484375,-0.740339994430542,1.8775877952575684,-0.590527355670929
1763368284528026400,0.3670263671875,-0.8563206791877747,2.064791440963745,-0.21379129588603973
1763368284538051300,0.37705126953125,-1.1037119626998901,2.0238754749298096,0.16131383180618286
1763368284548076300,0.387076171875,-1.4659922122955322,2.259225606918335,0.5043089985847473
1763368284558101500,0.3971015625,-1.822801947593689,2.7465972900390625,0.7473101615905762
1763368284568126500,0.40712646484375,-2.145427703857422,3.2335309982299805,0.8542131781578064
1763368284578151400,0.4171513671875,-2.4563815593719482,3.9242148399353027,0.7103419899940491
1763368284588176400,0.42717626953125,-2.8212621212005615,4.54263162612915,0.39114508032798767
1763368284598201600,0.43720166015625,-3.2107186317443848,4.739498615264893,0.10664652287960052
1763368284608227600,0.4472275390625,-3.360445022583008,4.5044121742248535,-0.02167283371090889
1763368284618252500,0.45725244140625,-3.180703639984131,4.171628952026367,-0.05206931754946709
1763368284628277200,0.46727734375,-2.7840511798858643,4.016768932342529,-0.07679171115159988
1763368284638302200,0.47730224609375,-2.3507707118988037,4.09628963470459,-0.1171993836760521
1763368284648327400,0.487327392578125,-2.0432682037353516,4.182016372680664,-0.1701347678899765
1763368284658352400,0.497352294921875,-1.8811160326004028,3.978917121887207,-0.15603823959827423
1763368284668377300,0.50737744140625,-1.7799433469772339,3.555233955383301,-0.05115976184606552
1763368284678402300,0.51740234375,-1.7579668760299683,3.184880018234253,0.10586848855018616
1763368284688428300,0.52742822265625,-1.851605772972107,2.9741973876953125,0.29494547843933105
1763368284698453500,0.53745361328125,-1.9917024374008179,2.962432384490967,0.47967323660850525
1763368284708478500,0.547478515625,-2.1038601398468018,3.0702550411224365,0.6705077290534973
1763368284718503400,0.55750341796875,-2.1622867584228516,3.2115180492401123,0.8680936694145203
1763368284728528400,0.5675283203125,-2.0899715423583984,3.4089555740356445,0.9883439540863037
1763368284738553600,0.5775537109375,-1.8928704261779785,3.6161370277404785,0.975898802280426
1763368284748578300,0.587578369140625,-1.631595492362976,3.67993426322937,0.8912307620048523
1763368284758603300,0.597603271484375,-1.353286623954773,3.5470380783081055,0.7854592800140381
1763368284768628500,0.60762841796875,-1.0779283046722412,3.2935643196105957,0.7061598896980286
1763368284778654500,0.617654541015625,-0.9056090712547302,2.9787254333496094,0.712997555732727
1763368284788679400,0.627679443359375,-0.8925643563270569,2.6998746395111084,0.8260226845741272
1763368284798704400,0.637704345703125,-1.0080745220184326,2.483152151107788,0.998992919921875
1763368284808729300,0.647729248046875,-1.1769100427627563,2.4558634757995605,1.1731061935424805
1763368284818753500,0.65775341796875,-1.2542279958724976,2.5477545261383057,1.2646759748458862
1763368284828778500,0.667778564453125,-1.158496379852295,2.651627779006958,1.176522135734558
1763368284838803200,0.67780322265625,-0.9293711185455322,2.6476457118988037,0.9363425970077515
1763368284848828400,0.687828369140625,-0.5901395678520203,2.421466112136841,0.555476725101471
1763368284858854400,0.6978544921875,-0.2525063753128052,2.0336496829986572,0.06717296689748764
1763368284868879400,0.70787939453125,-0.1019834503531456,1.556265115737915,-0.42060336470603943
1763368284878904300,0.717904296875,-0.16824552416801453,1.0614999532699585,-0.8362299799919128
1763368284888929300,0.72792919921875,-0.2857058346271515,0.6417999267578125,-1.1326038837432861
1763368284898954500,0.73795458984375,-0.24864009022712708,0.3570908308029175,-1.281083345413208
1763368284908979500,0.7479794921875,-0.006594973616302013,0.06826568394899368,-1.3170948028564453
1763368284919004400,0.75800439453125,0.3273507356643677,-0.18782377243041992,-1.3573254346847534
1763368284929029400,0.768029296875,0.6117480993270874,-0.36540013551712036,-1.4255527257919312
1763368284939054600,0.7780546875,0.7369659543037415,-0.4350568652153015,-1.4731372594833374
1763368284949080600,0.78808056640625,0.6449758410453796,-0.41239601373672485,-1.5035008192062378
1763368284959105500,0.79810546875,0.43850409984588623,-0.361425518989563,-1.500496506690979
1763368284969130500,0.808130615234375,0.22244372963905334,-0.3566770851612091,-1.4707969427108765
1763368284979155200,0.8181552734375,0.0985337495803833,-0.4288564920425415,-1.3884776830673218
1763368284989180400,0.828180419921875,0.11930187791585922,-0.280587375164032,-1.289019227027893
1763368284999205400,0.838205322265625,0.1562490165233612,-0.106661856174469,-1.2085038423538208
1763368285009230300,0.848230224609375,0.14405731856822968,-0.025941448286175728,-1.2841925621032715
1763368285019255300,0.85825537109375,0.06699638068675995,0.0031179594807326794,-1.508570671081543
1763368285029281300,0.86828125,-0.0678786113858223,-0.09629598259925842,-1.7382943630218506
1763368285039306500,0.878306396484375,-0.1948009878396988,-0.24529004096984863,-1.9022676944732666
1763368285049331500,0.88833154296875,-0.28943029046058655,-0.3396666347980499,-1.9346935749053955
1763368285059356400,0.8983564453125,-0.3686404824256897,-0.4345264732837677,-1.8462939262390137
1763368285069381400,0.90838134765625,-0.42569124698638916,-0.5347633361816406,-1.7111725807189941
1763368285079406600,0.918406494140625,-0.5302263498306274,-0.6956742405891418,-1.520573377609253
1763368285089431600,0.928431640625,-0.7073625326156616,-1.0812586545944214,-1.3056557178497314
1763368285099456300,0.938456298828125,-0.8863388299942017,-1.6358058452606201,-1.1525899171829224
1763368285109482500,0.948482421875,-1.0140427350997925,-2.149627685546875,-1.1418629884719849
1763368285119507200,0.958507080078125,-1.0530847311019897,-2.658224105834961,-1.2490572929382324
1763368285129532400,0.968532470703125,-1.0555508136749268,-3.152557373046875,-1.4112592935562134
1763368285139557400,0.978557373046875,-1.0531213283538818,-3.6139214038848877,-1.5597606897354126
1763368285149582300,0.988582275390625,-1.0362094640731812,-4.02869987487793,-1.6057718992233276
1763368285159607300,0.998607177734375,-1.0014283657073975,-4.296363353729248,-1.51931893825531
1763368285169632500,1.008632568359375,-0.9050105214118958,-3.8665056228637695,-1.0581598281860352
1763368285179657500,1.018657470703125,-0.6767717599868774,-2.294567823410034,-0.28351452946662903
1763368285189682400,1.028682373046875,-0.37289631366729736,-0.46133625507354736,0.3528536558151245
1763368285199708400,1.03870849609375,-0.17355860769748688,0.5323463678359985,0.5616891384124756
1763368285209733400,1.0487333984375,-0.15974612534046173,0.43372127413749695,0.4002986252307892
1763368285219758600,1.058758544921875,-0.3772988021373749,0.01049797236919403,0.1536654829978943
1763368285229783300,1.068783203125,-0.7064698338508606,-0.25313979387283325,-0.10194073617458344
1763368285239808300,1.078808349609375,-1.0588639974594116,-0.3286024034023285,-0.30400872230529785
1763368285249833500,1.08883349609375,-1.4089550971984863,-0.3760279715061188,-0.43292808532714844
1763368285259858400,1.0988583984375,-1.7399221658706665,-0.41616126894950867,-0.4695861041545868
1763368285269883400,1.10888330078125,-1.9997451305389404,-0.29590728878974915,-0.38765501976013184
1763368285279909400,1.118909423828125,-2.114778757095337,-0.06833405792713165,-0.20064179599285126
1763368285289934300,1.128934326171875,-2.0513222217559814,0.140322744846344,0.07424942404031754
1763368285299959300,1.138959228515625,-1.8759794235229492,0.27456411719322205,0.4170640707015991
1763368285309984500,1.148984619140625,-1.5854299068450928,0.36970341205596924,0.8010748624801636
1763368285320009500,1.159009521484375,-1.2281652688980103,0.32794496417045593,1.1642470359802246
1763368285330034400,1.169034423828125,-0.9512218236923218,0.13465355336666107,1.3809738159179688
1763368285340059400,1.179059326171875,-0.8454803228378296,-0.15053412318229675,1.397463083267212
1763368285350084400,1.18908447265625,-0.8579721450805664,-0.42535609006881714,1.2341976165771484
1763368285360109300,1.199109375,-0.8824811577796936,-0.4253629744052887,1.0231025218963623
1763368285370135300,1.20913525390625,-0.8501591682434082,0.0503188893198967,0.9277147650718689
1763368285380160300,1.21916015625,-0.8449793457984924,0.3371916115283966,1.0784744024276733
1763368285390185500,1.229185546875,-0.7930240035057068,0.5052405595779419,1.338675618171692
1763368285400210400,1.23921044921875,-0.6700589656829834,1.0181429386138916,1.5610615015029907
1763368285410235400,1.2492353515625,-0.5758544206619263,1.3217962980270386,1.659808874130249
1763368285420260400,1.25926025390625,-0.42661502957344055,1.996188998222351,1.421077013015747
1763368285430285600,1.26928564453125,-0.2819468080997467,2.90861439704895,0.9502245187759399
1763368285440311600,1.2793115234375,-0.06522568315267563,3.0351078510284424,0.5265267491340637
1763368285450336500,1.28933642578125,0.31315889954566956,2.9837441444396973,0.08824741840362549
1763368285460361500,1.299361572265625,0.5478262901306152,2.0734481811523438,-0.07088665664196014
1763368285470386400,1.309386474609375,0.38189005851745605,1.1573314666748047,0.03232947736978531
1763368285480411600,1.31941162109375,0.17072148621082306,0.5197468400001526,0.3490731418132782
1763368285490436400,1.329436279296875,-0.02782595343887806,0.40147292613983154,0.8125800490379333
1763368285500461300,1.33946142578125,-0.21281911432743073,1.2750276327133179,1.0621917247772217
1763368285510486300,1.349486328125,-0.44776105880737305,1.739381194114685,1.0726027488708496
1763368285520512300,1.35951220703125,-0.7615923285484314,1.4170968532562256,0.9459999203681946
1763368285530537500,1.369537353515625,-1.0760722160339355,1.0405343770980835,0.7574270963668823
1763368285540562400,1.3795625,-1.3303303718566895,0.8921079635620117,0.5339642763137817
1763368285550587400,1.38958740234375,-1.3798593282699585,0.9788795709609985,0.3089474141597748
1763368285560612400,1.3996123046875,-1.3171370029449463,0.7314675450325012,0.24975702166557312
1763368285570637600,1.409637451171875,-1.1362231969833374,-0.09139569848775864,0.3658764362335205
1763368285580662500,1.41966259765625,-0.9698757529258728,0.03260127827525139,0.38303548097610474
1763368285590687500,1.4296875,-1.0111466646194458,0.18199129402637482,0.29428642988204956
1763368285600713500,1.43971337890625,-1.0236891508102417,-0.34517183899879456,0.27656683325767517
1763368285610738400,1.449738525390625,-0.9606694579124451,-0.6390870809555054,0.4273020029067993
1763368285620763400,1.459763427734375,-0.8811361193656921,-0.30180487036705017,0.5238561034202576
1763368285630788400,1.469788330078125,-0.8387386202812195,0.12058978527784348,0.6928326487541199
1763368285640813300,1.479813232421875,-0.9151309132575989,0.5655211210250854,0.8732671737670898
1763368285650838300,1.48983837890625,-1.137326955795288,0.547258734703064,1.0284370183944702
1763368285660863500,1.499863525390625,-1.4512802362442017,0.03925605118274689,1.1544585227966309
1763368285670888400,1.509888427734375,-1.6381465196609497,-0.16227386891841888,1.160203218460083
1763368285680914400,1.51991455078125,-1.6780385971069336,0.21874171495437622,1.1422675848007202
1763368285690939400,1.529939453125,-1.9377028942108154,0.4784204363822937,1.2469364404678345
1763368285700964400,1.53996435546875,-2.07907772064209,-0.5853556394577026,1.4296265840530396
1763368285710989600,1.549989501953125,-1.7434736490249634,-0.8098705410957336,1.2758651971817017
1763368285721014500,1.5600146484375,-1.4201784133911133,-0.5409579873085022,0.8596920371055603
1763368285731039500,1.57003955078125,-1.1481153964996338,-0.8323118090629578,0.48863884806632996
1763368285741064200,1.580064208984375,-0.5830509066581726,-1.2047373056411743,0.22796674072742462
1763368285751090400,1.59009033203125,-0.19940951466560364,-0.9069157242774963,0.14940722286701202
1763368285761115400,1.600115478515625,-0.03643612936139107,-0.5520223379135132,0.2506599724292755
1763368285771140400,1.610140380859375,-0.009520893916487694,-0.1854419708251953,0.5872833132743835
1763368285781165300,1.620165283203125,0.11161919683218002,-0.12139613181352615,0.9691794514656067
1763368285791190300,1.630190185546875,0.21053805947303772,-0.13675113022327423,1.3223657608032227
1763368285801215500,1.640215576171875,0.16816183924674988,-0.04703695327043533,1.5095570087432861
1763368285811240700,1.65024072265625,0.14331747591495514,-0.054636549204587936,1.5564104318618774
1763368285821265700,1.660265625,0.18553683161735535,0.013828788883984089,1.536677360534668
1763368285831291600,1.670291748046875,0.17414569854736328,0.19720153510570526,1.4742987155914307
1763368285841316600,1.680316650390625,0.01649523712694645,0.40821143984794617,1.339450478553772
1763368285851341800,1.690341796875,-0.18415823578834534,0.4126048684120178,1.1869642734527588
1763368285861366800,1.70036669921875,-0.41050446033477783,0.4028180241584778,1.0534945726394653
1763368285871391700,1.710391845703125,-0.6444581151008606,0.3963737189769745,1.0001379251480103
1763368285881416400,1.72041650390625,-0.7251062989234924,0.036336563527584076,0.998117983341217
1763368285891441700,1.730441650390625,-0.70892333984375,-0.5943252444267273,0.6330353617668152
1763368285901467600,1.740467529296875,-0.6783769130706787,-0.8777378797531128,0.2883729636669159
1763368285911492600,1.75049267578125,-0.8005480766296387,-1.0202995538711548,0.02942981943488121
1763368285921517600,1.760517578125,-0.9230722784996033,-1.0097622871398926,-0.12050020694732666
1763368285931542500,1.77054248046875,-0.920169472694397,-0.8940436244010925,-0.13859133422374725
1763368285941567700,1.780567626953125,-0.8969171047210693,-0.7242975831031799,-0.12560629844665527
1763368285951592700,1.7905927734375,-0.8850399255752563,-0.5989454984664917,-0.15754958987236023
1763368285961617700,1.80061767578125,-0.9612815380096436,-0.544811487197876,-0.24841341376304626
1763368285971642600,1.810642578125,-1.239733099937439,-0.4129628837108612,-0.32582271099090576
1763368285981668600,1.820668701171875,-1.7041195631027222,-0.34490498900413513,-0.35963866114616394
1763368285991693800,1.83069384765625,-2.0115621089935303,-0.4543585181236267,-0.4241289496421814
1763368286001718800,1.84071875,-2.124296188354492,-0.3143438398838043,-0.6113817691802979
1763368286011743500,1.850743408203125,-1.8994357585906982,-0.0843854621052742,-0.8946619629859924
1763368286021768400,1.8607685546875,-1.2548134326934814,-0.09616116434335709,-0.7689777612686157
1763368286031793700,1.870793701171875,-0.8720231652259827,0.1811564713716507,-0.5563222169876099
1763368286041818600,1.880818603515625,-1.6259433031082153,0.7197493314743042,-1.002236247062683
1763368286051844600,1.8908447265625,-2.3177926540374756,0.9246332049369812,-1.591673731803894
1763368286061869600,1.90086962890625,-2.3628406524658203,0.5830301642417908,-1.1985243558883667
1763368286071894500,1.91089453125,-1.8507856130599976,1.1733416318893433,-0.405070424079895
1763368286081919700,1.920919677734375,-1.1085882186889648,1.9182806015014648,-0.049681778997182846
1763368286091944700,1.93094482421875,-0.836011528968811,2.1211206912994385,-0.08964836597442627
1763368286101969700,1.9409697265625,-1.1901060342788696,1.6309758424758911,0.007172223646193743
1763368286111994600,1.95099462890625,-1.1896865367889404,1.0181231498718262,0.3177601993083954
1763368286122019800,1.961019775390625,-0.7928339242935181,0.6119459271430969,0.5886261463165283
1763368286132045800,1.9710458984375,-0.4549032747745514,0.49824467301368713,0.5010571479797363
1763368286142070800,1.98107080078125,-0.17521043121814728,0.426504522562027,0.26166626811027527
1763368286152095500,1.991095458984375,0.38816237449645996,0.01804111711680889,-0.11381282657384872
1763368286162120700,2.00112060546875,0.8507812023162842,-0.0666363462805748,-0.3748982548713684
1763368286172145700,2.011145751953125,0.7192388772964478,0.21970859169960022,-0.3600734770298004
1763368286182170600,2.021170654296875,0.5986232757568359,-0.07144089043140411,-0.39200058579444885
1763368286192195600,2.031195556640625,0.053844645619392395,0.3328070044517517,-0.1625724583864212
1763368286202221600,2.0412216796875,-0.993817150592804,1.4424265623092651,0.44235968589782715
1763368286212246800,2.051246826171875,-1.2798821926116943,1.985024094581604,0.7131016850471497
1763368286222271700,2.061271728515625,-0.5392497181892395,1.7496815919876099,0.4195597469806671
1763368286232296700,2.071296630859375,0.4097467362880707,1.6528126001358032,0.15954150259494781
1763368286242321700,2.08132177734375,1.1973315477371216,0.8048205375671387,0.4707011580467224
1763368286252347000,2.091346923828125,1.9297583103179932,-0.31362053751945496,0.4385501444339752
1763368286262371800,2.101371826171875,2.370006561279297,-0.9108708500862122,0.07634401321411133
1763368286272397800,2.111397705078125,2.5098514556884766,-1.4538358449935913,-0.43188726902008057
1763368286282422500,2.121422607421875,2.6407053470611572,-2.4883933067321777,-0.974751889705658
1763368286292447500,2.131447509765625,2.6652655601501465,-3.4254367351531982,-1.1635611057281494
1763368286302472700,2.14147265625,2.570254325866699,-3.648413896560669,-1.193599820137024
1763368286312497700,2.15149755859375,2.3378889560699463,-2.8892056941986084,-1.0568246841430664
1763368286322522600,2.161522705078125,1.4646379947662354,-1.645806908607483,-0.5568175315856934
1763368286332547600,2.171547607421875,0.157439187169075,-0.7702592015266418,-0.13366921246051788
1763368286342573600,2.181573486328125,-0.5998707413673401,0.15760916471481323,-0.4030973017215729
1763368286352598800,2.191598876953125,-1.0292823314666748,2.1994409561157227,-0.8797242641448975
1763368286362623700,2.201623779296875,-1.3787245750427246,3.2678170204162598,-0.8186438083648682
1763368286372648700,2.211648681640625,-1.6462899446487427,2.5417375564575195,-0.05932439863681793
1763368286382673700,2.221673583984375,-1.7837963104248047,1.608544111251831,0.9636434316635132
1763368286392699000,2.231698974609375,-1.7682002782821655,1.290594458580017,1.8038212060928345
1763368286402723600,2.2417236328125,-1.2872514724731445,1.546643853187561,1.9988112449645996
1763368286412749800,2.251749755859375,-0.5545815825462341,1.8769632577896118,1.3744839429855347
1763368286422774500,2.2617744140625,-0.00627159932628274,1.6598999500274658,0.6844820976257324
1763368286432799500,2.271799560546875,0.40290793776512146,1.141428828239441,0.23918958008289337
1763368286442824700,2.28182470703125,0.6804337501525879,0.47645044326782227,-0.015615507960319519
1763368286452849700,2.291849609375,0.9630805850028992,-0.23606684803962708,-0.17468824982643127
1763368286462874600,2.30187451171875,1.2797342538833618,-0.6871395111083984,-0.25443315505981445
1763368286472899600,2.311899658203125,1.6475131511688232,-1.221333622932434,0.08131232857704163
1763368286482925600,2.321925537109375,1.8959368467330933,-1.3704696893692017,0.6992894411087036
1763368286492950800,2.33195068359375,2.0390512943267822,-0.7905172109603882,0.952552318572998
1763368286502975700,2.341975830078125,2.0416769981384277,-0.6403684020042419,1.3058655261993408
1763368286513000700,2.352000732421875,1.7606428861618042,-0.8375546932220459,1.6505552530288696
1763368286523025700,2.362025634765625,1.2216910123825073,-0.4191091060638428,1.5636703968048096
1763368286533051000,2.37205078125,0.9022176861763,0.11965478211641312,1.1596581935882568
1763368286543075600,2.38207568359375,0.928878128528595,-0.12384208291769028,1.0439506769180298
1763368286553100500,2.3921005859375,0.928204357624054,-0.8897331357002258,0.995071530342102
1763368286563126500,2.40212646484375,0.7687907814979553,-0.5777351260185242,0.6416696310043335
1763368286573151500,2.4121513671875,0.5845418572425842,0.15347006916999817,0.337160587310791
1763368286583176700,2.4221767578125,0.4057672321796417,0.5257630944252014,0.26394596695899963
1763368286593201700,2.43220166015625,0.08741642534732819,0.7204737067222595,0.22965562343597412
1763368286603226600,2.4422265625,-0.4252595901489258,1.1463512182235718,0.2262859344482422
1763368286613251600,2.45225146484375,-1.0587122440338135,1.7934452295303345,0.27026087045669556
1763368286623277600,2.462277587890625,-1.588107943534851,2.4430036544799805,0.23104284703731537
1763368286633302800,2.472302734375,-1.2230106592178345,2.786067008972168,0.12276165187358856
1763368286643327700,2.48232763671875,-0.27867263555526733,2.7768807411193848,0.11354850977659225
1763368286653352700,2.492352783203125,0.3364179730415344,2.271406650543213,0.07508767396211624
1763368286663377700,2.502377685546875,0.4108913242816925,1.7651466131210327,-0.05151796713471413
1763368286673402600,2.512402587890625,0.45321962237358093,1.1307997703552246,-0.34122514724731445
1763368286683427600,2.522427490234375,0.41996628046035767,0.7801271677017212,-0.7770535945892334
1763368286693453600,2.53245361328125,0.2478960007429123,0.7034134864807129,-1.1987411975860596
1763368286703478500,2.542478515625,0.01761537790298462,0.8872079253196716,-1.3530713319778442
1763368286713503500,2.55250341796875,-0.1195448786020279,1.2186591625213623,-1.0881861448287964
1763368286723528700,2.56252880859375,-0.1358872950077057,1.6469998359680176,-0.6799617409706116
1763368286733553700,2.5725537109375,-0.0679902732372284,1.9802765846252441,-0.35725104808807373
1763368286743578600,2.58257861328125,0.037812843918800354,1.9483606815338135,-0.12858359515666962
1763368286753603600,2.592603515625,0.18433783948421478,1.7017924785614014,-0.030771560966968536
1763368286763629600,2.602629638671875,0.2772788107395172,1.3293163776397705,0.01921900361776352
1763368286773654800,2.61265478515625,0.3810747265815735,1.0272870063781738,-0.02078646793961525
1763368286783679700,2.6226796875,0.434344619512558,0.8216681480407715,-0.10745079070329666
1763368286793704700,2.63270458984375,0.36611682176589966,0.6538506150245667,-0.05995597317814827
1763368286803729700,2.642729736328125,0.2611892819404602,0.5712778568267822,0.030833598226308823
1763368286813755000,2.6527548828125,0.12124362587928772,0.5250147581100464,0.05013672262430191
1763368286823779800,2.66277978515625,0.00975655298680067,0.45582279562950134,0.036885254085063934
1763368286833805800,2.672805908203125,0.004084286279976368,0.4221559166908264,0.07627074420452118
1763368286843830800,2.682830810546875,0.007708135060966015,0.5182327032089233,0.1154753714799881
1763368286853855700,2.692855712890625,0.01848088763654232,0.6626527309417725,0.13105380535125732
1763368286863881000,2.702880859375,0.09845750778913498,0.7002653479576111,0.1618836671113968
1763368286873906000,2.712906005859375,0.06470007449388504,0.6276209950447083,0.23235729336738586
1763368286883930600,2.7229306640625,-0.057076696306467056,0.6830278038978577,0.33134564757347107
1763368286893956900,2.732956787109375,-0.14875255525112152,0.912462055683136,0.44921794533729553
1763368286903981600,2.742981689453125,-0.14036968350410461,1.2719979286193848,0.6065198183059692
1763368286914006800,2.7530068359375,-0.12752552330493927,1.4236265420913696,0.685960054397583
1763368286924031700,2.76303173828125,-0.09253399074077606,1.4490728378295898,0.5719079971313477
1763368286934056700,2.773056640625,0.002284393412992358,1.343584418296814,0.5107849836349487
1763368286944081700,2.78308154296875,0.15895232558250427,1.2090258598327637,0.6920545697212219
1763368286954107000,2.79310693359375,0.3083671033382416,1.2366468906402588,0.8492375016212463
1763368286964132900,2.8031328125,0.38770830631256104,1.4585167169570923,0.9365962147712708
1763368286974157800,2.81315771484375,0.3235543370246887,1.798793911933899,0.9793724417686462
1763368286984182800,2.823182861328125,0.2675071358680725,2.0926225185394287,1.0631535053253174
1763368286994207700,2.833207763671875,0.2998592257499695,2.3521249294281006,1.189359188079834
1763368287004233000,2.84323291015625,0.38261905312538147,2.4635658264160156,1.194808006286621
1763368287014257700,2.853257568359375,0.4409146010875702,2.4095778465270996,1.0775740146636963
1763368287024284000,2.863283935546875,0.4352376461029053,2.2440073490142822,0.8923967480659485
1763368287034308600,2.87330859375,0.4473041594028473,1.9776990413665771,0.7269206643104553
1763368287044333800,2.883333740234375,0.5000558495521545,1.7340209484100342,0.49494603276252747
1763368287054358800,2.89335888671875,0.5390487909317017,1.531566858291626,0.2700766921043396
1763368287064383700,2.9033837890625,0.5641099214553833,1.6017560958862305,0.42580848932266235
1763368287074408700,2.91340869140625,0.4694790244102478,1.006969690322876,1.1114922761917114
1763368287084434000,2.923433837890625,0.2879254221916199,0.6428806185722351,1.0456267595291138
1763368287094459600,2.933459716796875,0.147696390748024,0.14884315431118011,0.3390655815601349
1763368287104484900,2.94348486328125,-0.2653445899486542,-0.2544699013233185,-0.12552843987941742
1763368287114509800,2.953509765625,-0.48104947805404663,-0.5876718163490295,-0.09398116916418076
1763368287124534800,2.96353466796875,-0.4336238503456116,-0.542508602142334,0.14462806284427643
1763368287134559700,2.973559814453125,-0.410661518573761,-0.5032253861427307,0.5317935943603516
1763368287144585000,2.9835849609375,-0.46252691745758057,-0.6009029150009155,0.9022330045700073
1763368287154611000,2.99361083984375,-0.5059894323348999,-0.5100672841072083,1.0276100635528564
1763368287164636000,3.003635986328125,-0.6442146897315979,-0.20893986523151398,1.1264623403549194
1763368287174660600,3.01366064453125,-0.6545282602310181,-0.11760568618774414,0.8183815479278564
1763368287184685800,3.023685791015625,-0.9215867519378662,-0.5014943480491638,0.3961724638938904
1763368287194710800,3.033710693359375,-1.1926952600479126,-0.6709789633750916,0.14534956216812134
1763368287204735700,3.04373583984375,-1.3973647356033325,-0.7578927874565125,0.2025955766439438
1763368287214761700,3.05376171875,-1.7069878578186035,-0.9169570207595825,0.1569732427597046
1763368287224786700,3.06378662109375,-2.1031506061553955,-1.077542781829834,0.09707178175449371
1763368287234812000,3.07381201171875,-2.533632755279541,-1.118761658668518,0.08221400529146194
1763368287244836900,3.0838369140625,-2.9918463230133057,-1.1222702264785767,-0.001692596822977066
1763368287254861800,3.09386181640625,-3.922529697418213,-1.2332688570022583,-0.19695210456848145
1763368287264886800,3.10388671875,-3.6085622310638428,-0.516493558883667,0.12530726194381714
1763368287274912800,3.113912841796875,-2.746574878692627,0.05162924528121948,0.4036579132080078
1763368287284938000,3.12393798828125,-2.0439207553863525,0.258212685585022,0.4296417534351349
1763368287294963000,3.133962890625,-1.622436761856079,-0.14669591188430786,0.234136164188385
1763368287304987600,3.143987548828125,-1.485647439956665,-0.9915710687637329,-0.0467468686401844
1763368287315012600,3.1540126953125,-1.4938691854476929,-1.7543747425079346,-0.33599066734313965
1763368287325037800,3.164037841796875,-1.4541329145431519,-2.086719036102295,-0.6010662317276001
1763368287335063800,3.174063720703125,-1.2436881065368652,-2.110659122467041,-0.6980894804000854
1763368287345088800,3.1840888671875,-1.136186122894287,-1.992622971534729,-0.504014790058136
1763368287355113700,3.19411376953125,-0.9009507298469543,-1.7830106019973755,-0.10460375249385834
1763368287365138700,3.204138671875,-0.6246713399887085,-1.3355122804641724,0.39105767011642456
1763368287375164000,3.214163818359375,-0.41752347350120544,-0.8125592470169067,0.7537038326263428
1763368287385188900,3.22418896484375,-0.1774931102991104,-0.6508345007896423,0.9820061922073364
1763368287395214800,3.23421484375,0.09594962745904922,-0.7453449964523315,1.1005525588989258
1763368287405239800,3.24423974609375,0.17571255564689636,-0.6176308989524841,1.1361373662948608
1763368287415264800,3.2542646484375,-0.17681220173835754,-0.27529430389404297,1.169370412826538
1763368287425290000,3.2642900390625,-0.6973958611488342,0.09996338933706284,1.286927342414856
1763368287435315000,3.27431494140625,-1.130698323249817,0.27561667561531067,1.3856643438339233
1763368287445339600,3.284339599609375,-1.4316608905792236,0.17114469408988953,1.374534249305725
1763368287455366000,3.294365966796875,-1.740363359451294,-0.3661919832229614,1.117523193359375
1763368287465390600,3.304390625,-2.2011380195617676,-0.8994811177253723,0.8209524750709534
1763368287475415800,3.314415771484375,-2.817535400390625,-1.2118078470230103,0.5010663270950317
1763368287485440800,3.324440673828125,-3.4369378089904785,-1.1178772449493408,0.2901948392391205
1763368287495465700,3.3344658203125,-3.9388554096221924,-0.8252450823783875,0.1677088737487793
1763368287505490700,3.34449072265625,-4.194194793701172,-0.119344562292099,0.3152059316635132
1763368287515516700,3.3545166015625,-4.065578460693359,0.5817592144012451,0.7668951153755188
1763368287525542000,3.3645419921875,-3.8702776432037354,1.0689334869384766,1.230636477470398
1763368287535566800,3.37456689453125,-3.7369275093078613,1.462965488433838,1.6167916059494019
1763368287545591800,3.384591796875,-3.841212749481201,1.9845304489135742,2.032022476196289
1763368287555616800,3.39461669921875,-4.325773239135742,2.3476247787475586,2.48297119140625
1763368287565642000,3.40464208984375,-4.657812118530273,1.9860514402389526,2.8648366928100586
1763368287575668000,3.41466796875,-4.76547908782959,1.3101414442062378,3.0441477298736572
1763368287585693000,3.42469287109375,-4.805469512939453,0.5667810440063477,2.7557897567749023
1763368287595717600,3.434717529296875,-4.116140365600586,0.2423696368932724,1.5974138975143433
1763368287605742600,3.44474267578125,-3.498201370239258,-0.17540082335472107,0.1302317976951599
1763368287615767800,3.454767822265625,-3.3076820373535156,-1.2442359924316406,-0.7361714839935303
1763368287625792800,3.464792724609375,-3.126291036605835,-2.1374289989471436,-1.2889379262924194
1763368287635818800,3.47481884765625,-2.922877550125122,-1.9936411380767822,-1.3750780820846558
1763368287645843700,3.48484375,-2.764343500137329,-0.49941954016685486,-0.7207176089286804
1763368287655868700,3.49486865234375,-2.6377336978912354,1.1190553903579712,0.7045332193374634
1763368287665894000,3.504893798828125,-2.5456788539886475,1.706396222114563,2.1826839447021484
1763368287675918800,3.5149189453125,-2.4976348876953125,1.3148857355117798,3.20729923248291
1763368287685943800,3.52494384765625,-2.872863531112671,0.2415970116853714,3.6533026695251465
1763368287695969800,3.5349697265625,-4.506470203399658,-0.563323438167572,3.0999984741210938
1763368287705994800,3.544994873046875,-5.085216522216797,0.60113525390625,0.9143205285072327
1763368287716020000,3.55502001953125,-1.3295953273773193,2.856731653213501,-2.4610776901245117
1763368287726045000,3.565044921875,0.6585486531257629,3.603329658508301,-3.0430996417999268
1763368287736069600,3.575069580078125,0.7600473165512085,3.3897619247436523,-1.69228994846344
1763368287746094600,3.585094482421875,0.6372509002685547,1.7254915237426758,-0.3768570125102997
1763368287756120600,3.59512060546875,0.34251803159713745,-0.5367023944854736,0.14142237603664398
1763368287766145800,3.605145751953125,-0.05190201476216316,-2.059781789779663,0.03957374021410942
1763368287776170800,3.615170654296875,-0.11013363301753998,-2.692655086517334,-0.29229581356048584
1763368287786195700,3.62519580078125,0.019935395568609238,-2.6190242767333984,-0.5109264254570007
1763368287796220700,3.635220703125,0.06809680163860321,-2.1318936347961426,-0.5561018586158752
1763368287806246700,3.64524658203125,-0.04254037141799927,-1.5393564701080322,-0.6111690998077393
1763368287816272100,3.655272216796875,-0.17374366521835327,-0.9053177833557129,-0.7955732941627502
1763368287826297000,3.665297119140625,-0.3009008765220642,-0.3376670181751251,-1.0858174562454224
1763368287836322000,3.675322021484375,-0.4444599151611328,0.12242388725280762,-1.4220508337020874
1763368287846347000,3.685346923828125,-0.5655578374862671,0.49246206879615784,-1.7918879985809326
1763368287856372200,3.695372314453125,-0.6694647669792175,0.850905179977417,-2.1722395420074463
1763368287866398200,3.705398193359375,-0.7343372702598572,1.2027829885482788,-2.535665273666382
1763368287876423200,3.715423095703125,-0.7479910254478455,1.480804204940796,-2.912111520767212
1763368287886448000,3.7254482421875,-0.707550585269928,1.5872803926467896,-3.308255672454834
1763368287896472800,3.735472900390625,-0.6692703366279602,1.432740330696106,-3.677870512008667
1763368287906498000,3.745498046875,-0.5700241327285767,0.863989531993866,-3.9050307273864746
1763368287916523000,3.75552294921875,-0.4469277262687683,-0.3707943856716156,-3.990675210952759
1763368287926549000,3.765549072265625,-0.34895458817481995,-1.780197024345398,-3.6464364528656006
1763368287936574000,3.775573974609375,-0.2427075356245041,-2.784479856491089,-3.0347156524658203
1763368287946599000,3.785598876953125,-0.09812487661838531,-3.3502554893493652,-2.3957812786102295
1763368287956624100,3.7956240234375,0.09605658054351807,-3.346442222595215,-1.8594574928283691
1763368287966649000,3.805649169921875,0.2504390776157379,-2.9203431606292725,-1.7416421175003052
1763368287976675000,3.815675048828125,0.3318553566932678,-2.168883800506592,-2.1358211040496826
1763368287986700000,3.825699951171875,0.49757128953933716,-1.599547028541565,-2.6684021949768066
1763368287996725000,3.83572509765625,0.6905354261398315,-1.0285817384719849,-3.05698561668396
1763368288006750200,3.845750244140625,0.857212245464325,-0.7035030722618103,-3.1290574073791504
1763368288016775200,3.855775146484375,1.0615991353988647,-0.47008636593818665,-3.075361967086792
1763368288026799900,3.8657998046875,1.0907517671585083,-0.3325032889842987,-3.03381609916687
1763368288036826000,3.875826171875,1.0670970678329468,-0.1334405094385147,-3.095928192138672
1763368288046850800,3.885850830078125,1.1489211320877075,0.140311136841774,-3.235619068145752
1763368288056876000,3.8958759765625,1.1885933876037598,0.5259382128715515,-3.3982248306274414
1763368288066901000,3.90590087890625,1.199113130569458,1.108642578125,-3.5065085887908936
1763368288076926000,3.915926025390625,1.1627475023269653,1.7067595720291138,-3.647508382797241
1763368288086952000,3.925951904296875,1.0840307474136353,1.9943798780441284,-3.813443660736084
1763368288096977000,3.935976806640625,0.9557292461395264,1.9934561252593994,-3.850942611694336
1763368288107002000,3.946002197265625,0.8484670519828796,1.9610308408737183,-3.735903263092041
1763368288117027000,3.956027099609375,0.6850823760032654,2.077927827835083,-3.601893424987793
1763368288127052000,3.966052001953125,0.519759476184845,2.0846879482269287,-3.405872344970703
1763368288137077000,3.976076904296875,0.40009966492652893,2.076793909072876,-3.1250498294830322
1763368288147103000,3.98610302734375,0.3069118857383728,2.0525124073028564,-2.8771705627441406
1763368288157128200,3.996128173828125,0.1333819031715393,1.803416132926941,-2.5712902545928955
1763368288167153200,4.006153076171875,0.0029886355623602867,1.6787601709365845,-2.2867681980133057
1763368288177178000,4.01617822265625,-0.04257086291909218,1.7110400199890137,-2.061135768890381
1763368288187202800,4.026202880859375,-0.000925862230360508,1.793708324432373,-1.8874033689498901
1763368288197228000,4.03622802734375,0.03641778230667114,1.5333493947982788,-1.595369815826416
1763368288207254000,4.04625390625,0.0829070433974266,1.325151801109314,-1.3286486864089966
1763368288217279000,4.056279052734375,0.1007869765162468,1.0516356229782104,-1.068597674369812
1763368288227304000,4.066303955078125,0.09932780265808105,0.7099658846855164,-0.7877521514892578
1763368288237329000,4.076328857421875,0.10219043493270874,0.3449258506298065,-0.48417526483535767
1763368288247354000,4.08635400390625,0.13804933428764343,0.0026598209515213966,-0.1802356243133545
1763368288257380000,4.096380126953125,0.205735981464386,-0.2211487740278244,0.0714288279414177
1763368288267405000,4.106405029296875,0.29231274127960205,-0.42084813117980957,0.31598079204559326
1763368288277430000,4.116429931640625,0.4178411066532135,-0.5147306323051453,0.539567232131958
1763368288287455000,4.126455078125,0.5493752360343933,-0.40823057293891907,0.7610192894935608
1763368288297480200,4.136480224609375,0.6979809403419495,-0.24665363132953644,1.0359435081481934
1763368288307505200,4.146505126953125,0.8351356387138367,-0.12145065516233444,1.3791770935058594
1763368288317531100,4.15653125,0.93201744556427,-0.3943021297454834,1.4989784955978394
1763368288327556000,4.16655615234375,0.802886426448822,-1.7667156457901,0.3598547577857971
1763368288337580800,4.176580810546875,0.6998668313026428,-1.7926048040390015,-0.43785518407821655
1763368288347606000,4.18660595703125,0.6232749819755554,-0.1441362202167511,0.47462770342826843
1763368288357631000,4.196630859375,0.396304190158844,1.3065677881240845,1.2976957559585571
1763368288367657000,4.206656982421875,0.290805459022522,0.7593316435813904,1.5399686098098755
1763368288377682000,4.216681884765625,0.24309253692626953,-1.718714714050293,0.6783957481384277
1763368288387707000,4.226706787109375,0.41525426506996155,-0.618587076663971,0.7077746391296387
1763368288397732000,4.236732177734375,0.494915246963501,1.4734106063842773,1.2741705179214478
1763368288407757000,4.246757080078125,0.3494795262813568,0.28595301508903503,1.297978162765503
1763368288417783000,4.256782958984375,0.44403401017189026,-0.6802577972412109,1.797890067100525
1763368288427808000,4.26680810546875,0.5141569972038269,-0.6921282410621643,2.1089653968811035
1763368288437833000,4.2768330078125,0.42332780361175537,-0.3887861669063568,2.0208683013916016
1763368288447858200,4.286858154296875,0.38364624977111816,0.06540211290121078,2.0314106941223145
1763368288457883100,4.296883056640625,0.4359555244445801,0.18338121473789215,2.0193400382995605
1763368288467908000,4.306908203125,0.4807696044445038,0.22599156200885773,2.055553674697876
1763368288477934000,4.31693408203125,0.438872754573822,0.23103399574756622,2.138927936553955
1763368288487959000,4.326958984375,0.3268146812915802,0.14178237318992615,2.216156482696533
1763368288497984000,4.33698388671875,0.18241539597511292,-0.0021074216347187757,2.325943946838379
1763368288508009000,4.347009033203125,0.003340011229738593,-0.22424209117889404,2.4366536140441895
1763368288518034000,4.357033935546875,-0.13375286757946014,-0.515116274356842,2.556749105453491
1763368288528059000,4.367058837890625,-0.21556176245212555,-0.7499298453330994,2.671004295349121
1763368288538084900,4.3770849609375,-0.24434493482112885,-0.8414490818977356,2.714230537414551
1763368288548110000,4.387110107421875,-0.2221570760011673,-0.8777408003807068,2.730189323425293
1763368288558135000,4.397135009765625,-0.18822574615478516,-1.0320405960083008,2.854079008102417
1763368288568160000,4.407159912109375,-0.21096493303775787,-1.2699192762374878,3.036360025405884
1763368288578185000,4.41718505859375,-0.3302958607673645,-1.3644609451293945,3.1316206455230713
1763368288588211000,4.4272109375,-0.5023899674415588,-1.2528458833694458,3.1145894527435303
1763368288598236200,4.437236083984375,-0.6383914351463318,-1.0979870557785034,3.028446912765503
1763368288608261000,4.44726123046875,-0.7384004592895508,-0.9723762273788452,2.8864495754241943
1763368288618286000,4.4572861328125,-0.8143474459648132,-0.9099740982055664,2.732774496078491
1763368288628311000,4.46731103515625,-0.8987054228782654,-0.8264160752296448,2.616349697113037
1763368288638337000,4.4773369140625,-0.9937922954559326,-0.7151387929916382,2.4938013553619385
1763368288648362000,4.487362060546875,-1.0268868207931519,-0.5661248564720154,2.4215519428253174
1763368288658387000,4.497386962890625,-1.0422996282577515,-0.3977467715740204,2.34104323387146
1763368288668412000,4.507411865234375,-1.083550214767456,-0.185670867562294,2.2633495330810547
1763368288678437000,4.51743701171875,-1.1132266521453857,0.08853592723608017,2.201828718185425
1763368288688462800,4.527462890625,-1.144963264465332,0.49552589654922485,2.1022281646728516
1763368288698488000,4.537488037109375,-1.0706697702407837,0.8910007476806641,2.0003440380096436
1763368288708513000,4.547512939453125,-0.8083306550979614,1.2064265012741089,1.881352186203003
1763368288718538000,4.5575380859375,-0.4275220036506653,1.4003512859344482,1.7305195331573486
1763368288728563000,4.56756298828125,-0.11069755256175995,1.4038721323013306,1.578874111175537
1763368288738588200,4.577588134765625,0.07105626910924911,1.2918281555175781,1.4200180768966675
1763368288748614100,4.5876142578125,0.15655073523521423,1.142914056777954,1.2668602466583252
1763368288758639000,4.59763916015625,0.16747821867465973,1.032245397567749,1.1983379125595093
1763368288768664000,4.6076640625,0.26703202724456787,0.7641209959983826,1.2538304328918457
1763368288778689000,4.61768896484375,0.4427814781665802,0.25516965985298157,1.4369726181030273
1763368288788714000,4.6277138671875,0.5823637843132019,-0.2619221806526184,1.6842106580734253
1763368288798740200,4.637740234375,0.6796421408653259,-0.6611659526824951,1.8945380449295044
1763368288808765000,4.647764892578125,0.7150399088859558,-0.9052370190620422,1.965632438659668
1763368288818789600,4.65778955078125,0.6455439329147339,-0.9785615801811218,1.807822346687317
1763368288828814800,4.66781494140625,0.4917921721935272,-0.9074521064758301,1.4743952751159668
1763368288838839800,4.67783984375,0.3061983287334442,-0.8882323503494263,1.1347837448120117
1763368288848864800,4.68786474609375,0.1469898521900177,-0.9295105338096619,0.9716520309448242
1763368288858890800,4.697890869140625,-0.12668749690055847,-0.8314524292945862,0.899198055267334
1763368288868915700,4.707915771484375,-0.2703275978565216,-0.5256632566452026,0.8298357725143433
1763368288878941000,4.71794091796875,-0.30575990676879883,-0.22053317725658417,0.7561959028244019
1763368288888966000,4.7279658203125,-0.30455535650253296,-0.051862336695194244,0.6757810115814209
1763368288898990800,4.737990966796875,-0.26115357875823975,0.026946723461151123,0.6274715662002563
1763368288909016800,4.748016845703125,-0.1606239378452301,0.09974249452352524,0.6682857871055603
1763368288919041800,4.758041748046875,-0.04782867431640625,0.1479310542345047,0.6949714422225952
1763368288929067000,4.76806689453125,0.019888902083039284,0.21223145723342896,0.6524438261985779
1763368288939091700,4.778091796875,-0.01605951227247715,0.3933684825897217,0.5238584280014038
1763368288949116700,4.78811669921875,-0.1349218189716339,0.7700710296630859,0.3388826251029968
1763368288959142700,4.798142578125,-0.2619444727897644,1.2946033477783203,0.1662469357252121
1763368288969167600,4.808167724609375,-0.3095455765724182,1.6715186834335327,0.05453580245375633
1763368288979192800,4.81819287109375,-0.26567134261131287,1.6592950820922852,0.007773091085255146
1763368288989217800,4.8282177734375,-0.16220971941947937,1.1878618001937866,0.011394472792744637
1763368288999242800,4.83824267578125,-0.03155212104320526,0.3248118758201599,0.06573174893856049
1763368289009267700,4.848267822265625,0.09064169973134995,-0.5633845329284668,0.13593612611293793
1763368289019293700,4.858293701171875,0.19804325699806213,-1.143019676208496,0.15440967679023743
1763368289029319000,4.86831884765625,0.28118693828582764,-1.3933124542236328,0.07270975410938263
1763368289039343900,4.87834375,0.3705439567565918,-1.3713983297348022,-0.13473159074783325
1763368289049368800,4.888368896484375,0.4494207799434662,-1.1147292852401733,-0.3682633340358734
1763368289059393800,4.898393798828125,0.4716903865337372,-0.7118785977363586,-0.5169164538383484
1763368289069419800,4.908419677734375,0.479455828666687,-0.2478925585746765,-0.5418316721916199
1763368289079445000,4.918445068359375,0.4353810250759125,0.17038431763648987,-0.5288556814193726
1763368289089469700,4.9284697265625,0.30809327960014343,0.46764904260635376,-0.5407823920249939
1763368289099494700,4.93849462890625,0.11623463034629822,0.5566753149032593,-0.5790424346923828
1763368289109519600,4.94851953125,-0.1020745038986206,0.4860115945339203,-0.6255731582641602
1763368289119545600,4.958545654296875,-0.26616808772087097,0.33893880248069763,-0.6594813466072083
1763368289129570800,4.96857080078125,-0.3496694564819336,0.22541044652462006,-0.6353501677513123
1763368289139595800,4.978595703125,-0.36042463779449463,0.1813252717256546,-0.6156094670295715
1763368289149620700,4.988620849609375,-0.4044766128063202,0.15306401252746582,-0.7216565608978271
1763368289159645700,4.998645751953125,-0.47931036353111267,0.12438656389713287,-1.016549825668335
1763368289169671700,5.008671630859375,-0.5457150340080261,0.19586056470870972,-1.4496066570281982
1763368289179697000,5.01869677734375,-0.6133798360824585,0.36585119366645813,-1.973753809928894
1763368289189721900,5.028721923828125,-0.6761701107025146,0.5869818925857544,-2.5413992404937744
1763368289199746800,5.038746826171875,-0.738164484500885,0.750491738319397,-3.1023378372192383
1763368289209771800,5.048771728515625,-0.7731124758720398,0.8331623673439026,-3.6497392654418945
1763368289219797000,5.058796875,-0.7736362814903259,0.7544947266578674,-4.065216064453125
1763368289229823000,5.068822998046875,-0.7943697571754456,0.3972773551940918,-4.17624568939209
1763368289239848000,5.078847900390625,-0.8663488626480103,-0.26022621989250183,-4.0032219886779785
1763368289249872600,5.08887255859375,-0.8299433588981628,-1.1530044078826904,-3.6137311458587646
1763368289259897600,5.098897705078125,-0.6678593754768372,-2.010455846786499,-3.067641019821167
1763368289269922800,5.1089228515625,-0.36296480894088745,-2.5087952613830566,-2.421093225479126
1763368289279948800,5.11894873046875,-0.07572343200445175,-2.193629741668701,-2.0966594219207764
1763368289289973800,5.128973876953125,0.05720341578125954,-1.667292833328247,-1.944238543510437
1763368289299998700,5.138998779296875,0.22103922069072723,-1.5674277544021606,-2.0953691005706787
1763368289310023700,5.149023681640625,0.34841036796569824,-1.7747116088867188,-2.2680656909942627
1763368289320049000,5.159048828125,0.4398753046989441,-1.8203842639923096,-2.3029708862304688
1763368289330075000,5.169074951171875,0.5097900032997131,-1.7659798860549927,-2.324766159057617
1763368289340099800,5.179099853515625,0.6070952415466309,-1.7429150342941284,-2.3183393478393555
1763368289350124800,5.189124755859375,0.6867908239364624,-1.6753300428390503,-2.3252477645874023
1763368289360149800,5.199149658203125,0.7005822658538818,-1.088265299797058,-2.3956427574157715
1763368289370175000,5.209175048828125,0.7285865545272827,-0.48477548360824585,-2.5682356357574463
1763368289380201000,5.219200927734375,0.7667323350906372,-0.09977825731039047,-2.9665517807006836
1763368289390226000,5.229225830078125,0.8535599112510681,-0.0661754310131073,-3.2767550945281982
1763368289400250600,5.239250732421875,0.9933321475982666,0.6843611598014832,-3.3683598041534424
1763368289410275600,5.249275634765625,1.1292461156845093,1.3819668292999268,-3.498180866241455
1763368289420300800,5.25930078125,1.0973092317581177,1.4657264947891235,-3.4857985973358154
1763368289430326800,5.269326904296875,1.0054339170455933,1.5480544567108154,-3.435126781463623
1763368289440351700,5.279351806640625,0.9434385299682617,1.814763069152832,-3.542100429534912
1763368289450376700,5.289376708984375,0.871425211429596,1.973015546798706,-3.6002566814422607
1763368289460401700,5.299401611328125,0.7294350862503052,1.848661184310913,-3.446925401687622
1763368289470427000,5.309427001953125,0.5484637022018433,1.6874146461486816,-3.138998508453369
1763368289480451800,5.319451904296875,0.3867397904396057,1.5574250221252441,-2.7838926315307617
1763368289490477800,5.329477783203125,0.242062047123909,1.4355062246322632,-2.495152473449707
1763368289500502800,5.339502685546875,0.12396229803562164,1.4519439935684204,-2.3062121868133545
1763368289510527700,5.34952783203125,0.035016030073165894,1.247361421585083,-2.0660061836242676
1763368289520553000,5.359552978515625,-0.024794574826955795,0.8121747374534607,-1.6820130348205566
1763368289530578000,5.369577880859375,-0.005396068561822176,0.43436741828918457,-1.2856166362762451
1763368289540604000,5.37960400390625,0.04927383363246918,0.13589657843112946,-0.9541175365447998
1763368289550628900,5.38962890625,0.06804096698760986,0.051558226346969604,-0.7271474599838257
1763368289560653600,5.399653564453125,0.16326548159122467,-0.054651834070682526,-0.5175721049308777
1763368289570678800,5.4096787109375,0.2776586711406708,-0.07989206910133362,-0.3221970796585083
1763368289580703700,5.419703857421875,0.3824237287044525,-0.01797490194439888,-0.14687079191207886
1763368289590729700,5.429729736328125,0.45206132531166077,-0.027250876650214195,0.06661457568407059
1763368289600754700,5.439754638671875,0.48487573862075806,-0.09773649275302887,0.33943599462509155
1763368289610779600,5.449779541015625,0.5049648284912109,-0.12088266015052795,0.6345781087875366
1763368289620804900,5.459804931640625,0.5484806299209595,-0.0826130285859108,0.9030343294143677
1763368289630829800,5.469829833984375,0.6087615489959717,0.019470350816845894,1.1508883237838745
1763368289640855800,5.479855712890625,0.6758255362510681,0.15702661871910095,1.4272129535675049
1763368289650880800,5.489880859375,0.7341932654380798,0.030362823978066444,1.5875362157821655
1763368289660905700,5.49990576171875,0.6464831233024597,-1.2043747901916504,0.6276587247848511
1763368289670931000,5.509930908203125,0.37787604331970215,-2.2243688106536865,-0.8435457944869995
1763368289680956000,5.519955810546875,0.3866354525089264,-0.7256885766983032,-0.32968559861183167
1763368289690982000,5.52998193359375,0.4319312274456024,0.462938129901886,0.3366926908493042
1763368289701006800,5.5400068359375,0.31849759817123413,2.0426137447357178,1.0666821002960205
1763368289711031600,5.550031494140625,0.20796923339366913,0.3153443932533264,1.029942274093628
1763368289721056800,5.560056884765625,0.08597328513860703,-1.7456746101379395,0.24554839730262756
1763368289731081700,5.570081787109375,0.24918954074382782,-0.14867445826530457,0.787635087966919
1763368289741106700,5.580106689453125,0.1638919562101364,0.7145537734031677,1.356405258178711
1763368289751132700,5.590132568359375,0.04799838364124298,-0.34245967864990234,1.3120050430297852
1763368289761157600,5.60015771484375,0.18383744359016418,-0.7364541292190552,1.6553670167922974
1763368289771182800,5.610182861328125,0.17163993418216705,-0.6444580554962158,1.883563756942749
1763368289781207800,5.620207763671875,0.06924725323915482,-0.28074637055397034,1.749813199043274
1763368289791232800,5.630232666015625,0.03132085129618645,0.22221308946609497,1.6809372901916504
1763368289801258800,5.6402587890625,0.06908074766397476,0.3290223479270935,1.7036216259002686
1763368289811283700,5.65028369140625,0.18886831402778625,0.3922524154186249,1.7205568552017212
1763368289821309000,5.660308837890625,0.24537500739097595,0.4552156627178192,1.7321614027023315
1763368289831334000,5.670333984375,0.1477867215871811,0.3819126784801483,1.8429627418518066
1763368289841358800,5.68035888671875,-0.06930991262197495,0.14731243252754211,2.032716751098633
1763368289851384800,5.690384765625,-0.30961641669273376,-0.13752557337284088,2.1949946880340576
1763368289861409800,5.700409912109375,-0.4694095551967621,-0.39756378531455994,2.3259315490722656
1763368289871434800,5.710434814453125,-0.4989534616470337,-0.591558039188385,2.463758707046509
1763368289881459700,5.720459716796875,-0.41539332270622253,-0.7798989415168762,2.5939321517944336
1763368289891484700,5.730484619140625,-0.3115553855895996,-0.9020640850067139,2.6999478340148926
1763368289901510700,5.7405107421875,-0.21324241161346436,-1.004496455192566,2.818486213684082
1763368289911535600,5.75053564453125,-0.18832039833068848,-1.081421971321106,2.9709227085113525
1763368289921560800,5.760560791015625,-0.22777779400348663,-1.0624074935913086,3.0964746475219727
1763368289931585800,5.770585693359375,-0.3165431022644043,-0.9243652820587158,3.1170120239257812
1763368289941610800,5.78061083984375,-0.40423300862312317,-0.7827823162078857,3.0737709999084473
1763368289951636700,5.79063671875,-0.4484046697616577,-0.7476169466972351,3.0683302879333496
1763368289961661700,5.80066162109375,-0.5004398822784424,-0.7430610656738281,3.0611367225646973
1763368289971687000,5.81068701171875,-0.6159594058990479,-0.6181750297546387,2.973912000656128
1763368289981712000,5.8207119140625,-0.6999757289886475,-0.44793832302093506,2.826113224029541
1763368289991736800,5.83073681640625,-0.7735733985900879,-0.2885742485523224,2.5956432819366455
1763368290001762800,5.8407626953125,-0.8229821920394897,-0.14257174730300903,2.346458911895752
1763368290011787800,5.850787841796875,-0.8060839176177979,0.05531500279903412,2.1654138565063477
1763368290021812700,5.860812744140625,-0.7635290026664734,0.2796224057674408,2.100645065307617
1763368290031837700,5.870837646484375,-0.7328943610191345,0.507290780544281,2.0513579845428467
1763368290041862700,5.880862548828125,-0.6625943779945374,0.6316867470741272,2.0193228721618652
1763368290051887900,5.890887939453125,-0.5727131962776184,0.7174311280250549,1.9585756063461304
1763368290061913900,5.900913818359375,-0.653740406036377,0.8714202046394348,1.8722652196884155
1763368290071938800,5.910938720703125,-0.7165263295173645,1.0680668354034424,1.7624218463897705
1763368290081963800,5.9209638671875,-0.5460302233695984,1.060510277748108,1.6328585147857666
1763368290091988700,5.93098876953125,-0.25269338488578796,0.8185682892799377,1.5535691976547241
1763368290102014000,5.941013916015625,-0.006431936286389828,0.5660444498062134,1.5821439027786255
1763368290112039700,5.951039794921875,0.17907710373401642,0.39333808422088623,1.6174871921539307
1763368290122065000,5.96106494140625,0.3578926622867584,0.10322822630405426,1.594878077507019
1763368290132089900,5.97108984375,0.5046519637107849,-0.24435657262802124,1.580452561378479
1763368290142114800,5.98111474609375,0.6245530843734741,-0.612361490726471,1.5984432697296143
1763368290152139800,5.991139892578125,0.6795998215675354,-0.9967612624168396,1.569844126701355
1763368290162165800,6.001165771484375,0.6532497406005859,-1.3641176223754883,1.433348536491394
1763368290172190700,6.011190673828125,0.5758640170097351,-1.5075697898864746,1.2681795358657837
1763368290182215700,6.021215576171875,0.41175732016563416,-1.441862940788269,1.0862470865249634
1763368290192240600,6.03124072265625,0.2491699457168579,-1.1319236755371094,0.8847030401229858
1763368290202265900,6.041265869140625,0.1492137908935547,-0.7339839935302734,0.7071964144706726
1763368290212291800,6.051291748046875,0.06144764646887779,-0.4762009382247925,0.6266131401062012
1763368290222316800,6.06131689453125,0.025433184579014778,-0.35687240958213806,0.5681048631668091
1763368290232341800,6.071341796875,-0.021144282072782516,-0.3896671533584595,0.4849284291267395
1763368290242366700,6.08136669921875,-0.03163793683052063,-0.5124527215957642,0.44771528244018555
1763368290252392000,6.091391845703125,0.07354452461004257,-0.6774248480796814,0.5354046821594238
1763368290262418000,6.10141796875,0.14504268765449524,-0.7590677738189697,0.6910794973373413
1763368290272443000,6.11144287109375,0.24276793003082275,-0.766074001789093,0.7989622950553894
1763368290282467800,6.1214677734375,0.3212214708328247,-0.6968334317207336,0.8944326043128967
1763368290292492800,6.131492919921875,0.31175196170806885,-0.5093436241149902,0.8876908421516418
1763368290302518000,6.14151806640625,0.22167479991912842,-0.16251668334007263,0.7575471997261047
1763368290312543700,6.151543701171875,0.05526634678244591,0.27626755833625793,0.5154969692230225
1763368290322569000,6.16156884765625,-0.09275427460670471,0.6652345061302185,0.23369884490966797
1763368290332593700,6.17159375,-0.20359183847904205,0.8861629962921143,0.050368692725896835
1763368290342618600,6.18161865234375,-0.25763165950775146,0.9589700698852539,0.016786495223641396
1763368290352643800,6.191643798828125,-0.269351065158844,0.9142109751701355,0.07982015609741211
1763368290362669800,6.201669921875,-0.20582136511802673,0.6619910001754761,0.17665588855743408
1763368290372694800,6.21169482421875,-0.11282588541507721,0.20091469585895538,0.2775539755821228
1763368290382719700,6.2217197265625,-0.045159757137298584,-0.33741214871406555,0.3572472035884857
1763368290392744700,6.23174462890625,-0.04159887507557869,-0.7277641892433167,0.3578178882598877
1763368290402770000,6.24177001953125,-0.0689237117767334,-0.9246370792388916,0.2952152192592621
1763368290412796000,6.2517958984375,-0.06429368257522583,-0.9081200957298279,0.20062293112277985
1763368290422820900,6.26182080078125,-0.05408313125371933,-0.6609952449798584,0.10418348759412766
1763368290432845800,6.271845703125,-0.025818418711423874,-0.3280186653137207,0.03114289417862892
1763368290442870800,6.281870849609375,0.028379838913679123,-0.05088692158460617,0.00839177519083023
1763368290452896000,6.29189599609375,0.10763641446828842,0.09976513683795929,-0.018047621473670006
1763368290462922000,6.301921875,0.15939122438430786,0.1892569363117218,-0.07267971336841583
1763368290472947000,6.311947021484375,0.2133677452802658,0.3186938166618347,-0.1698744297027588
1763368290482971600,6.3219716796875,0.23259469866752625,0.4467431306838989,-0.21246983110904694
1763368290492996600,6.33199658203125,0.2582203149795532,0.5027777552604675,-0.22272057831287384
1763368290503021800,6.342021728515625,0.24909314513206482,0.46725010871887207,-0.2610242962837219
1763368290513046800,6.352046875,0.1557164341211319,0.3706744611263275,-0.37692907452583313
1763368290523072800,6.36207275390625,0.011022370308637619,0.23307879269123077,-0.5604328513145447
1763368290533097700,6.37209765625,-0.15036241710186005,0.11172711104154587,-0.7313941717147827
1763368290543122700,6.382122802734375,-0.2827012836933136,0.08079955726861954,-0.8448256850242615
1763368290553148000,6.39214794921875,-0.3666248023509979,0.169276162981987,-0.9037747383117676
1763368290563172900,6.4021728515625,-0.40378814935684204,0.3213319778442383,-0.9437996745109558
1763368290573198800,6.41219873046875,-0.43495863676071167,0.4538224935531616,-1.0409454107284546
1763368290583223800,6.422223876953125,-0.47402507066726685,0.5037232041358948,-1.2383090257644653
1763368290593248800,6.432248779296875,-0.5173883438110352,0.489190012216568,-1.5455821752548218
1763368290603274000,6.44227392578125,-0.5607866644859314,0.47451919317245483,-1.959714412689209
1763368290613299000,6.452298828125,-0.602116584777832,0.4581752419471741,-2.425109624862671
1763368290623325000,6.462324951171875,-0.6461817622184753,0.4124719202518463,-2.9185659885406494
1763368290633350000,6.472349853515625,-0.6857344508171082,0.24575656652450562,-3.4359254837036133
1763368290643374600,6.48237451171875,-0.6982158422470093,-0.14752280712127686,-3.9074418544769287
1763368290653399800,6.49239990234375,-0.7950189709663391,-0.6508269906044006,-4.160082817077637
1763368290663424800,6.5024248046875,-0.9023568630218506,-1.2063789367675781,-4.038074493408203
1763368290673450800,6.51245068359375,-0.7859547138214111,-1.8198132514953613,-3.5444629192352295
1763368290683475700,6.522475830078125,-0.40421849489212036,-2.6349284648895264,-2.8074402809143066
1763368290693500700,6.532500732421875,0.09443408995866776,-3.087557554244995,-2.173922300338745
1763368290703526000,6.54252587890625,0.3992350101470947,-3.004974365234375,-1.7130370140075684
1763368290713550800,6.55255078125,0.4702330231666565,-2.7081193923950195,-1.6492962837219238
1763368290723576800,6.562576904296875,0.6224611401557922,-2.271347999572754,-1.9296659231185913
1763368290733601800,6.572601806640625,0.8577539324760437,-1.6573594808578491,-2.2505829334259033
1763368290743626800,6.582626708984375,1.0121551752090454,-1.4177337884902954,-2.3963091373443604
1763368290753652000,6.59265185546875,1.1151597499847412,-1.317583441734314,-2.3947818279266357
1763368290763677000,6.602677001953125,1.123250961303711,-0.9577410817146301,-2.3675029277801514
1763368290773703000,6.612702880859375,1.0966869592666626,-0.3661154806613922,-2.4432945251464844
1763368290783727900,6.622727783203125,1.1716830730438232,0.15567179024219513,-2.5530290603637695
1763368290793752600,6.632752685546875,1.2143419981002808,0.5161260366439819,-2.786215305328369
1763368290803777800,6.64277783203125,1.2316429615020752,0.7762607336044312,-3.036686658859253
1763368290813802800,6.652802734375,1.2853683233261108,1.1548874378204346,-3.2048146724700928
1763368290823828700,6.662828857421875,1.3300998210906982,1.5274572372436523,-3.2363405227661133
1763368290833853700,6.672853759765625,1.2922638654708862,1.8951013088226318,-3.2227885723114014
1763368290843878700,6.682878662109375,1.271921992301941,2.0164482593536377,-3.189993143081665
1763368290853904000,6.69290380859375,1.151369571685791,1.844845175743103,-3.081104278564453
1763368290863928600,6.702928466796875,0.9892749190330505,1.740754246711731,-2.9878265857696533
1763368290873954800,6.712954833984375,0.8465434908866882,1.8373816013336182,-2.990182876586914
1763368290883979500,6.7229794921875,0.7104066610336304,1.8500845432281494,-3.0025501251220703
1763368290894004500,6.73300439453125,0.5817064046859741,1.7993589639663696,-2.930403709411621
1763368290904029700,6.74302978515625,0.4313861131668091,1.399143934249878,-2.6485471725463867
1763368290914054700,6.7530546875,0.2753011882305145,1.0632967948913574,-2.253175973892212
1763368290924079600,6.76307958984375,0.21085934340953827,1.0860093832015991,-2.030982494354248
1763368290934105600,6.773105712890625,0.19380229711532593,1.2743732929229736,-1.91862952709198
1763368290944130600,6.783130615234375,0.18665143847465515,1.3232684135437012,-1.8017148971557617
1763368290954155800,6.79315576171875,0.211710125207901,1.1261085271835327,-1.5822196006774902
1763368290964180700,6.8031806640625,0.22694313526153564,0.8415053486824036,-1.277855634689331
1763368290974206700,6.813206787109375,0.21317873895168304,0.6265362501144409,-1.001915454864502
1763368290984231700,6.823231689453125,0.18407490849494934,0.5206697583198547,-0.815119206905365
1763368290994256600,6.833256591796875,0.16113896667957306,0.4643024802207947,-0.6816527247428894
1763368291004281900,6.84328173828125,0.1725037395954132,0.2411133497953415,-0.4244510233402252
1763368291014306600,6.853306640625,0.19530245661735535,0.04893253743648529,-0.09291145205497742
1763368291024331500,6.86333154296875,0.23854605853557587,-0.08042757958173752,0.19422870874404907
1763368291034357500,6.873357421875,0.2547597289085388,-0.15765634179115295,0.44004377722740173
1763368291044382500,6.883382568359375,0.25733712315559387,-0.19221378862857819,0.6733686327934265
1763368291054407700,6.89340771484375,0.27618923783302307,-0.20508180558681488,0.9232128858566284
1763368291064432600,6.9034326171875,0.28470414876937866,-0.17962172627449036,1.2121593952178955
1763368291074457600,6.91345751953125,0.2921279966831207,-0.18126606941223145,1.5625020265579224
1763368291084483600,6.923483642578125,0.31526872515678406,-0.3322606384754181,1.8711384534835815
1763368291094508500,6.933508544921875,0.31729841232299805,-1.1756277084350586,1.3842047452926636
1763368291104533800,6.94353369140625,0.13833583891391754,-2.4514973163604736,-0.3474545478820801
1763368291114558700,6.953558837890625,0.12954768538475037,-1.1301920413970947,-0.2899656891822815
1763368291124583700,6.963583740234375,0.208272323012352,0.1816670000553131,0.7012953758239746
1763368291134609700,6.973609619140625,0.27937155961990356,1.6116191148757935,1.7400767803192139
1763368291144634600,6.983634521484375,0.33956781029701233,0.17308253049850464,1.5798085927963257
1763368291154659800,6.993659912109375,0.18128573894500732,-1.8135474920272827,0.4927041232585907
1763368291164684800,7.003684814453125,0.301042765378952,0.3403332531452179,0.6800100803375244
1763368291174709500,7.01370947265625,0.3169004023075104,1.7501723766326904,1.1444520950317383
1763368291184735700,7.02373583984375,0.312930703163147,0.3952029347419739,0.9967528581619263
1763368291194760400,7.033760498046875,0.32596129179000854,-0.25332528352737427,1.4679983854293823
1763368291204785700,7.04378564453125,0.1869964897632599,-0.5901267528533936,1.9343531131744385
1763368291214810600,7.053810546875,0.05445052683353424,-0.6874192357063293,1.9561728239059448
1763368291224835600,7.063835693359375,0.025837525725364685,-0.18929733335971832,1.8544044494628906
1763368291234861600,7.073861572265625,0.08480539172887802,0.00772298825904727,1.7518892288208008
1763368291244886500,7.083886474609375,0.062441762536764145,-0.06683620065450668,1.7678722143173218
1763368291254911700,7.093911865234375,-0.02378607541322708,-0.13075456023216248,1.8037683963775635
1763368291264936700,7.103936767578125,-0.138363778591156,-0.05899942293763161,1.827620267868042
1763368291274961700,7.113961669921875,-0.27544236183166504,-0.06987009942531586,1.8695015907287598
1763368291284987600,7.123987548828125,-0.4182746112346649,-0.19762539863586426,1.9884482622146606
1763368291295012600,7.1340126953125,-0.49853143095970154,-0.3808092474937439,2.149358034133911
1763368291305037800,7.144037841796875,-0.46725180745124817,-0.6131567358970642,2.3039820194244385
1763368291315062800,7.154062744140625,-0.35491493344306946,-0.8271321654319763,2.410264015197754
1763368291325087500,7.16408740234375,-0.252474308013916,-0.9265700578689575,2.4891645908355713
1763368291335113700,7.17411376953125,-0.20072264969348907,-0.9224624037742615,2.52889084815979
1763368291345138400,7.184138427734375,-0.2048172652721405,-0.9009206295013428,2.576941967010498
1763368291355163600,7.19416357421875,-0.2495475560426712,-0.9272826313972473,2.6558640003204346
1763368291365188600,7.204188720703125,-0.31870293617248535,-0.9496976733207703,2.7334482669830322
1763368291375213600,7.214213623046875,-0.4150432050228119,-0.9815418124198914,2.771214485168457
1763368291385239600,7.224239501953125,-0.5330188274383545,-0.876736581325531,2.764312267303467
1763368291395264500,7.234264404296875,-0.5885648131370544,-0.6740391850471497,2.7203917503356934
1763368291405289700,7.244289794921875,-0.5563086271286011,-0.3866300582885742,2.662299394607544
1763368291415314700,7.254314697265625,-0.49842438101768494,-0.1510632336139679,2.559885263442993
1763368291425339600,7.264339599609375,-0.4587392807006836,0.013985365629196167,2.409219264984131
1763368291435365600,7.27436572265625,-0.4862420856952667,0.16289088129997253,2.2247815132141113
1763368291445390600,7.284390625,-0.5178652405738831,0.30679506063461304,2.0480268001556396
1763368291455415800,7.294415771484375,-0.5754762291908264,0.368757963180542,1.8701839447021484
1763368291465440800,7.304440673828125,-0.599262535572052,0.4255618751049042,1.7125756740570068
1763368291475465700,7.3144658203125,-0.5675758719444275,0.5656407475471497,1.5712084770202637
1763368291485491700,7.32449169921875,-0.5460867881774902,0.8549143671989441,1.4385020732879639
1763368291495516700,7.3345166015625,-0.5695070624351501,1.2152899503707886,1.2923139333724976
1763368291505541600,7.344541748046875,-0.5945034623146057,1.5444930791854858,1.1349900960922241
1763368291515566600,7.354566650390625,-0.5641581416130066,1.6852912902832031,1.060143232345581
1763368291525591600,7.364591552734375,-0.48356392979621887,1.5017046928405762,1.120187759399414
1763368291535616500,7.374616455078125,-0.37142643332481384,1.1402053833007812,1.2099496126174927
1763368291545642500,7.384642578125,-0.2582237124443054,0.6520775556564331,1.3088425397872925
1763368291555667700,7.394667724609375,-0.15531711280345917,0.10706237703561783,1.3986715078353882
1763368291565692700,7.404692626953125,-0.03216641768813133,-0.38235124945640564,1.4355584383010864
1763368291575717600,7.414717529296875,0.08838488161563873,-0.7498025894165039,1.404590129852295
1763368291585742600,7.42474267578125,0.18169139325618744,-0.9629641175270081,1.3071688413619995
1763368291595768600,7.4347685546875,0.2720429599285126,-1.0030176639556885,1.208593487739563
1763368291605793800,7.444793701171875,0.3354134261608124,-0.9390981197357178,1.0615006685256958
1763368291615818800,7.45481884765625,0.34494873881340027,-0.8389561176300049,0.86333167552948
1763368291625843700,7.46484375,0.3891358971595764,-0.740623414516449,0.6860693097114563
1763368291635868700,7.47486865234375,0.4002119302749634,-0.662559449672699,0.5993279814720154
1763368291645894700,7.484894775390625,0.4010937213897705,-0.5422213077545166,0.5959575176239014
1763368291655919600,7.494919677734375,0.409542441368103,-0.49364179372787476,0.6118600964546204
1763368291665944600,7.504944580078125,0.409658819437027,-0.470539391040802,0.5845469832420349
1763368291675969500,7.514969482421875,0.40974631905555725,-0.4366980791091919,0.5019468665122986
1763368291685994800,7.524994873046875,0.4066280126571655,-0.4597991406917572,0.3955530524253845
1763368291696020500,7.5350205078125,0.38036632537841797,-0.5471888780593872,0.3034532070159912
1763368291706045700,7.545045654296875,0.3547251522541046,-0.6094768047332764,0.2653636038303375
1763368291716070700,7.555070556640625,0.3290964365005493,-0.5356625318527222,0.2790074944496155
1763368291726095600,7.565095703125,0.28817883133888245,-0.31760022044181824,0.3280687630176544
1763368291736120600,7.57512060546875,0.2372525930404663,-0.06382619589567184,0.3594323396682739
1763368291746146600,7.585146484375,0.18301358819007874,0.09897124022245407,0.3885188698768616
1763368291756171800,7.595171875,0.12943816184997559,0.19531939923763275,0.3967447876930237
1763368291766196700,7.60519677734375,0.0796428918838501,0.29816561937332153,0.3664816915988922
1763368291776221700,7.6152216796875,0.04560176283121109,0.3963274359703064,0.29059863090515137
1763368291786246700,7.62524658203125,0.022844254970550537,0.401960551738739,0.21637527644634247
1763368291796272600,7.635272705078125,0.03322255238890648,0.37861138582229614,0.2123565673828125
1763368291806297900,7.6452978515625,0.07089696079492569,0.4758426249027252,0.2709604799747467
1763368291816323000,7.655322998046875,0.08157021552324295,0.6187504529953003,0.3587718605995178
1763368291826348000,7.66534814453125,0.04740079119801521,0.6542983055114746,0.4256416857242584
1763368291836373000,7.675373046875,0.008325653150677681,0.5681201815605164,0.438305526971817
1763368291846399000,7.68539892578125,-0.030409224331378937,0.38850298523902893,0.41106486320495605
1763368291856424200,7.695424072265625,-0.06387017667293549,0.133226677775383,0.36410215497016907
1763368291866449200,7.70544921875,-0.09363925457000732,-0.1513238251209259,0.2976442873477936
1763368291876474000,7.71547412109375,-0.13022847473621368,-0.3582092523574829,0.2262132614850998
1763368291886498800,7.725498779296875,-0.1468937247991562,-0.44254782795906067,0.1571713387966156
1763368291896525000,7.735525146484375,-0.1554957777261734,-0.4450632333755493,0.10887091606855392
1763368291906550000,7.745550048828125,-0.14109712839126587,-0.406532883644104,0.11545984447002411
1763368291916575000,7.755574951171875,-0.09021595865488052,-0.30071526765823364,0.14802446961402893
1763368291926600000,7.765599853515625,-0.008930156007409096,-0.13153156638145447,0.17103311419487
1763368291936625000,7.775625,0.07879441231489182,0.021084478124976158,0.17354819178581238
1763368291946651000,7.78565087890625,0.18344838917255402,0.10223472863435745,0.18742085993289948
1763368291956676000,7.795676025390625,0.2812137007713318,0.10369928926229477,0.22663965821266174
1763368291966701000,7.805701171875,0.35933566093444824,0.04444289579987526,0.2473638504743576
1763368291976726000,7.81572607421875,0.37764209508895874,-0.02724773995578289,0.2154085785150528
1763368291986751000,7.8257509765625,0.31482478976249695,-0.16807863116264343,0.19241565465927124
1763368291996777000,7.83577685546875,0.2595539093017578,-0.34455975890159607,0.1735849380493164
1763368292006802200,7.84580224609375,0.16773292422294617,-0.5182545781135559,0.1805243343114853
1763368292016827100,7.8558271484375,0.031887173652648926,-0.6519783139228821,0.2180304229259491
1763368292026852000,7.86585205078125,-0.1292540431022644,-0.6721315383911133,0.22788038849830627
1763368292036876800,7.875876708984375,-0.29216301441192627,-0.48810771107673645,0.17799273133277893
1763368292046903000,7.885903076171875,-0.4389937222003937,-0.10209903866052628,0.08035778999328613
1763368292056928000,7.895927978515625,-0.5824235677719116,0.36263179779052734,-0.020587986335158348
1763368292066953000,7.905952880859375,-0.7001203298568726,0.7534192800521851,-0.11999128013849258
1763368292076978000,7.91597802734375,-0.7442125678062439,0.9875167608261108,-0.22677311301231384
1763368292087003000,7.9260029296875,-0.740234911441803,1.0022130012512207,-0.3397396206855774
1763368292097028900,7.93602880859375,-0.7302435040473938,0.771944522857666,-0.47412484884262085
1763368292107054000,7.94605419921875,-0.7282149791717529,0.3892618715763092,-0.6397367119789124
1763368292117079000,7.9560791015625,-0.720319390296936,0.022198563441634178,-0.7846931219100952
1763368292127104000,7.96610400390625,-0.6871818900108337,-0.1877290904521942,-0.8848681449890137
1763368292137129000,7.97612890625,-0.631689190864563,-0.23567812144756317,-0.9420257210731506
1763368292147155000,7.986155029296875,-0.563250720500946,-0.17706966400146484,-0.9656804800033569
1763368292157180200,7.99618017578125,-0.49536895751953125,-0.04916604980826378,-0.9574970602989197
1763368292167205000,8.006205078125,-0.41395053267478943,0.11411262303590775,-0.9301373362541199
1763368292177230000,8.01622998046875,-0.3361910283565521,0.24720165133476257,-0.9082792401313782
1763368292187255000,8.026255126953124,-0.2828100919723511,0.3319990932941437,-0.9066086411476135
1763368292197281000,8.036281005859376,-0.2556203305721283,0.3710336983203888,-0.9637044072151184
1763368292207306200,8.04630615234375,-0.2637839913368225,0.3326735198497772,-1.1094897985458374
1763368292217331000,8.0563310546875,-0.2617557644844055,0.1493990421295166,-1.3101731538772583
1763368292227356000,8.06635595703125,-0.29825279116630554,-0.18087366223335266,-1.5095301866531372
1763368292237380900,8.076380859375,-0.38740840554237366,-0.583377480506897,-1.700010061264038
1763368292247406000,8.086406005859375,-0.49223440885543823,-0.9959130883216858,-1.8238193988800049
1763368292257432000,8.09643212890625,-0.5543643832206726,-1.3679914474487305,-1.9176404476165771
1763368292267457000,8.10645703125,-0.5534898042678833,-1.5240007638931274,-2.019881248474121
1763368292277482000,8.11648193359375,-0.45556405186653137,-1.4519118070602417,-2.051161050796509
1763368292287507000,8.1265068359375,-0.3670826554298401,-1.2017765045166016,-1.983551263809204
1763368292297532200,8.1365322265625,-0.3318087160587311,-0.874163806438446,-1.925349473953247
1763368292307558100,8.14655810546875,-0.29200270771980286,-0.4857044816017151,-1.9806556701660156
1763368292317583000,8.1565830078125,-0.17483025789260864,-0.172035351395607,-2.07635498046875
1763368292327608000,8.166608154296876,-0.04724806174635887,-0.0458180233836174,-2.1467461585998535
1763368292337633000,8.176633056640625,0.02433973178267479,-0.14637760818004608,-2.1584954261779785
1763368292347658000,8.186657958984375,0.02747001126408577,0.007565086241811514,-2.2284128665924072
1763368292357684200,8.196684326171875,0.029635468497872353,0.02777782455086708,-2.1631696224212646
1763368292367709000,8.206708984375,0.03612825646996498,-0.04210112616419792,-1.9615434408187866
1763368292377734000,8.21673388671875,0.03192839026451111,0.031108282506465912,-1.739662766456604
1763368292387758800,8.2267587890625,0.10147471725940704,0.06860266625881195,-1.5340845584869385
1763368292397784000,8.2367841796875,0.15817582607269287,0.012343596667051315,-1.3490922451019287
1763368292407810000,8.24681005859375,0.2337387502193451,-0.13831967115402222,-1.181913137435913
1763368292417835000,8.2568349609375,0.34143009781837463,-0.29116734862327576,-0.9917392134666443
1763368292427860000,8.26685986328125,0.4696357250213623,-0.3341127038002014,-0.8269087076187134
1763368292437885000,8.276885009765625,0.5864885449409485,-0.2907716929912567,-0.73024982213974
1763368292447910100,8.28691015625,0.69561767578125,-0.26761123538017273,-0.6639456748962402
1763368292457936100,8.29693603515625,0.7689458727836609,-0.24904853105545044,-0.5972675681114197
1763368292467961000,8.306961181640625,0.7820994853973389,-0.22651205956935883,-0.5316704511642456
1763368292477986000,8.316986083984375,0.8258039951324463,-0.03837056830525398,-0.4650845229625702
1763368292488011000,8.327010986328125,0.9296539425849915,0.1240718737244606,-0.3955991864204407
1763368292498036200,8.3370361328125,0.9955388307571411,0.226321280002594,-0.34659668803215027
1763368292508062200,8.347062255859376,1.0299010276794434,0.38200005888938904,-0.34747740626335144
1763368292518087200,8.357087158203125,1.0253174304962158,0.539090096950531,-0.3461357653141022
1763368292528111900,8.36711181640625,0.9873929023742676,0.7128613591194153,-0.32577747106552124
1763368292538136800,8.37713671875,0.9286051988601685,0.8647254109382629,-0.30929064750671387
1763368292548162000,8.387162109375,0.8511026501655579,0.9554358720779419,-0.2737497091293335
1763368292558188000,8.39718798828125,0.7692011594772339,1.0019104480743408,-0.21761345863342285
1763368292568213000,8.407212890625,0.6926366090774536,1.0427851676940918,-0.14540371298789978
1763368292578238000,8.417238037109374,0.5880257487297058,1.072243571281433,-0.03972281515598297
1763368292588263000,8.427262939453126,0.5231817960739136,1.0133270025253296,0.0858478993177414
1763368292598288100,8.4372880859375,0.4456534683704376,1.0387613773345947,0.14113777875900269
1763368292608314000,8.447314208984375,0.32429003715515137,1.0802699327468872,0.17754612863063812
1763368292618339000,8.457339111328125,0.22823558747768402,1.1641840934753418,0.18488261103630066
1763368292628364000,8.467364013671874,0.15224388241767883,1.2063326835632324,0.21003936231136322
1763368292638389000,8.477388916015625,0.09474363923072815,1.216700792312622,0.2550552785396576
1763368292648414200,8.487414306640625,0.05604390799999237,1.2221661806106567,0.3106690049171448
1763368292658440200,8.497440185546875,0.019766326993703842,1.2471060752868652,0.3547461926937103
1763368292668465200,8.507465087890624,-0.006076456047594547,1.2547643184661865,0.38474857807159424
1763368292678489900,8.51748974609375,-0.008574899286031723,1.2242932319641113,0.3987829387187958
1763368292688515000,8.52751513671875,0.013724015094339848,1.1228183507919312,0.40184319019317627
1763368292698540000,8.5375400390625,0.053388990461826324,0.9929160475730896,0.40178990364074707
1763368292708566000,8.54756591796875,0.10901283472776413,0.8955780863761902,0.3848596513271332
1763368292718591000,8.557591064453124,0.17428752779960632,0.8354138135910034,0.34860068559646606
1763368292728616000,8.567615966796875,0.25326141715049744,0.7873222231864929,0.30248165130615234
1763368292738641000,8.577640869140625,0.3354179859161377,0.7586609125137329,0.25242435932159424
1763368292748666000,8.587666015625,0.38351547718048096,0.7937683463096619,0.19862984120845795
1763368292758692000,8.597692138671874,0.38146480917930603,0.9388787746429443,0.15646429359912872
1763368292768717000,8.607717041015626,0.3190280795097351,1.1691114902496338,0.14806121587753296
1763368292778742000,8.617741943359375,0.24128997325897217,1.3612093925476074,0.1998535394668579
1763368292788767000,8.62776708984375,0.2062757909297943,1.4660212993621826,0.27228060364723206
1763368292798792200,8.637792236328124,0.2206648290157318,1.494978427886963,0.29811254143714905
1763368292808818200,8.647818115234376,0.26447516679763794,1.3919516801834106,0.29647496342658997
1763368292818843600,8.65784375,0.3291760981082916,1.1287111043930054,0.318256676197052
1763368292828868600,8.66786865234375,0.4198777675628662,0.780031681060791,0.3297540843486786
1763368292838893600,8.6778935546875,0.46614888310432434,0.4995817542076111,0.267421156167984
1763368292848918500,8.68791845703125,0.4463315010070801,0.5300376415252686,0.24987679719924927
1763368292858944800,8.69794482421875,0.39275050163269043,0.8133598566055298,0.18967467546463013
1763368292868969500,8.707969482421875,0.35313570499420166,0.9994556307792664,-0.0509864017367363
1763368292878994400,8.717994384765625,0.23623518645763397,1.3258970975875854,-0.42987775802612305
1763368292889019400,8.728019287109374,-0.04995528236031532,1.911568284034729,-0.6499373912811279
1763368292899044600,8.738044677734376,-0.35194841027259827,2.0765368938446045,-0.6268642544746399
1763368292909069600,8.748069580078125,-0.44772180914878845,1.800783634185791,-0.3411577045917511
1763368292919095600,8.758095458984375,-0.4116553068161011,1.600117564201355,0.15118032693862915
1763368292929120500,8.76812060546875,-0.3255007266998291,1.3863812685012817,0.6323245763778687
1763368292939145500,8.7781455078125,-0.2911111116409302,0.893362283706665,1.0117778778076172
1763368292949170700,8.788170654296875,-0.2552409768104553,0.24794705212116241,1.3579621315002441
1763368292959195600,8.798195556640625,-0.2030525654554367,-0.2020900696516037,1.6947822570800781
1763368292969221600,8.8082216796875,-0.20805025100708008,-0.3916512131690979,1.9044052362442017
1763368292979246600,8.81824658203125,-0.24391132593154907,-0.3864120841026306,1.904431700706482
1763368292989271600,8.828271484375,-0.24805065989494324,-0.2531408369541168,1.7368801832199097
1763368292999296500,8.838296630859375,-0.22851839661598206,0.04402042180299759,1.5271022319793701
1763368293009321500,8.848321533203125,-0.17221729457378387,0.37877389788627625,1.3068684339523315
1763368293019347500,8.858347412109374,-0.10981970280408859,0.6523032784461975,1.095842719078064
1763368293029372400,8.868372314453126,-0.07378499954938889,0.8043434619903564,0.9094067215919495
1763368293039397400,8.8783974609375,-0.0766567662358284,0.899354875087738,0.7612026333808899
1763368293049422600,8.888422607421875,-0.07374779880046844,0.9546802043914795,0.6309964656829834
1763368293059447600,8.898447509765624,-0.05675572529435158,1.027468204498291,0.5148352384567261
1763368293069473500,8.9084736328125,-0.03426666185259819,1.125651478767395,0.42426589131355286
1763368293079498500,8.91849853515625,0.014435652643442154,1.161373257637024,0.37753328680992126
1763368293089523500,8.9285234375,0.0541313998401165,1.1125437021255493,0.3792230784893036
1763368293099548700,8.938548583984375,0.08264618366956711,1.004395604133606,0.4142206907272339
1763368293109573600,8.94857373046875,0.10627774149179459,0.8437092304229736,0.4610161781311035
1763368293119599600,8.958599609375,0.09683539718389511,0.7233343124389648,0.48889973759651184
1763368293129624600,8.96862451171875,0.07634290307760239,0.6738700866699219,0.47794562578201294
1763368293139649500,8.9786494140625,0.03623231127858162,0.6720452904701233,0.4328990578651428
1763368293149674800,8.9886748046875,-0.0017211944796144962,0.7133623957633972,0.36441054940223694
1763368293159699500,8.998699462890626,-0.025075754150748253,0.7675883769989014,0.2920638918876648
1763368293169725400,9.008725341796875,-0.03203059732913971,0.8176065683364868,0.23212307691574097
1763368293179750400,9.01875048828125,-0.022961081936955452,0.8405136466026306,0.22062405943870544
1763368293189775400,9.028775390625,0.014229163527488708,0.7861268520355225,0.23132969439029694
1763368293199800600,9.038800537109376,0.051674019545316696,0.6833003759384155,0.24508899450302124
1763368293209825500,9.048825439453125,0.11996838450431824,0.5808653235435486,0.24238136410713196
1763368293219851500,9.0588515625,0.19065766036510468,0.5002374649047852,0.23633775115013123
1763368293229876500,9.06887646484375,0.2514054477214813,0.44904112815856934,0.23163221776485443
1763368293239901400,9.0789013671875,0.280685156583786,0.4543531537055969,0.23511067032814026
1763368293249926700,9.0889267578125,0.26732781529426575,0.5351340174674988,0.2440173476934433
1763368293259951600,9.09895166015625,0.24804800748825073,0.6324335336685181,0.2644786238670349
1763368293269977600,9.1089775390625,0.24199117720127106,0.6937264204025269,0.28048500418663025
1763368293280002600,9.11900244140625,0.2293899804353714,0.7379044890403748,0.2996096909046173
1763368293290027500,9.129027587890626,0.2090468853712082,0.7947887778282166,0.32910260558128357
1763368293300052700,9.139052734375,0.20374885201454163,0.8510794639587402,0.37426260113716125
1763368293310077400,9.149077392578125,0.19104130566120148,0.8822818994522095,0.43813586235046387
1763368293320103700,9.159103759765625,0.1724172830581665,0.8838553428649902,0.5087456107139587
1763368293330128400,9.16912841796875,0.16225147247314453,0.8920352458953857,0.5626208782196045
1763368293340153300,9.1791533203125,0.14892277121543884,0.8972989320755005,0.6027536392211914
1763368293350178600,9.189178466796875,0.13736411929130554,0.903680145740509,0.6201331615447998
1763368293360203500,9.19920361328125,0.12485342472791672,0.9082280993461609,0.6184832453727722
1763368293370229500,9.2092294921875,0.08596301078796387,0.9149565696716309,0.6111936569213867
1763368293380254500,9.21925439453125,0.0499393567442894,0.9010528326034546,0.6034992933273315
1763368293390279400,9.229279541015625,0.02895737811923027,0.869868814945221,0.5955314040184021
1763368293400304600,9.2393046875,0.020249351859092712,0.8229208588600159,0.5874515771865845
1763368293410329600,9.24932958984375,0.013639919459819794,0.759992241859436,0.5918716192245483
1763368293420354600,9.2593544921875,0.005893603898584843,0.6979979872703552,0.6216490268707275
1763368293430380500,9.269380615234375,0.0112628024071455,0.6505854725837708,0.6760635375976562
1763368293440405500,9.279405517578125,0.037072960287332535,0.6122192144393921,0.7308121919631958
1763368293450430700,9.2894306640625,0.07772132009267807,0.5752145648002625,0.7858688235282898
1763368293460455400,9.299455322265626,0.10188023746013641,0.5121269226074219,0.8306528329849243
1763368293470480400,9.30948046875,0.10666407644748688,0.44458356499671936,0.8756019473075867
1763368293480506400,9.31950634765625,0.11816640198230743,0.3515164852142334,0.8770536184310913
1763368293490531300,9.32953125,0.1086602509021759,0.2525811195373535,0.8515110015869141
1763368293500556500,9.339556640625,0.08092322945594788,0.15845879912376404,0.8078641891479492
1763368293510581500,9.34958154296875,0.0697491392493248,0.05704161897301674,0.7362381815910339
1763368293520606500,9.3596064453125,0.044520407915115356,-0.02602095901966095,0.6511840224266052
1763368293530632400,9.369632568359375,0.0013140825321897864,-0.09981288760900497,0.552356481552124
1763368293540657400,9.379657470703124,-0.03470898047089577,-0.18018685281276703,0.43821555376052856
1763368293550682600,9.3896826171875,-0.052810221910476685,-0.2821662127971649,0.3130272626876831
1763368293560707600,9.39970751953125,-0.04486526548862457,-0.3441630005836487,0.21128708124160767
1763368293570732500,9.409732666015625,-0.03207783028483391,-0.2872757315635681,0.18319152295589447
1763368293580758500,9.419758544921875,-0.000033107586205005646,-0.13440020382404327,0.22951719164848328
1763368293590783500,9.429783447265624,0.02691994607448578,0.05478142946958542,0.33228936791419983
1763368293600808700,9.43980859375,0.030138958245515823,0.1675601601600647,0.4517499804496765
1763368293610833700,9.449833740234375,0.02362300455570221,0.1685066521167755,0.5400841236114502
1763368293620858400,9.4598583984375,0.04270489886403084,0.11794308573007584,0.5695446133613586
1763368293630884600,9.469884521484374,0.04586820304393768,0.05154089629650116,0.5391371846199036
1763368293640909300,9.479909423828126,0.05333453789353371,-0.07502712309360504,0.4622780382633209
1763368293650934500,9.4899345703125,0.05371563881635666,-0.21977844834327698,0.35455769300460815
1763368293660959500,9.49995947265625,0.02419637143611908,-0.3155655860900879,0.2696041762828827
1763368293670984400,9.509984375,-0.0029396405443549156,-0.3487246036529541,0.2085741013288498
1763368293681010400,9.520010498046876,-0.03570086508989334,-0.31191521883010864,0.20318786799907684
1763368293691035400,9.530035400390625,-0.0773729458451271,-0.2502662241458893,0.19942854344844818
1763368293701060600,9.540060546875,-0.05554119125008583,-0.23796524107456207,0.13746026158332825
1763368293711085600,9.55008544921875,0.011459948495030403,-0.2692547142505646,0.027128158137202263
1763368293721110500,9.560110595703126,0.12073195725679398,-0.3040448725223541,-0.0973365381360054
1763368293731136500,9.570136474609376,0.25242552161216736,-0.2896387577056885,-0.21316726505756378
1763368293741161500,9.580161376953125,0.45229169726371765,-0.2912887632846832,-0.34505075216293335
1763368293751186700,9.590186767578125,0.6419473886489868,-0.2791474163532257,-0.4220624566078186
1763368293761211600,9.600211669921874,0.7530685067176819,-0.18343095481395721,-0.4268588125705719
1763368293771236400,9.610236328125,0.7595849633216858,0.07718384265899658,-0.3417239487171173
1763368293781262600,9.6202626953125,0.6421799063682556,0.4696348011493683,-0.2089344561100006
1763368293791287300,9.630287353515625,0.5578330755233765,0.8455322980880737,-0.09500469267368317
1763368293801312500,9.6403125,0.6171489953994751,0.9785395264625549,-0.007427707780152559
1763368293811337500,9.65033740234375,0.5679020881652832,1.162717580795288,0.18324264883995056
1763368293821361400,9.660361328125,0.3987972140312195,1.5541244745254517,0.2878686487674713
1763368293831387400,9.670387451171875,0.16710352897644043,2.0071372985839844,0.1681947112083435
1763368293841412400,9.680412353515624,-0.0884547010064125,2.404982089996338,-0.2138940691947937
1763368293851437300,9.690437255859376,-0.36693212389945984,2.6504297256469727,-0.9563431739807129
1763368293861462300,9.700462158203125,-0.6303085684776306,2.215815782546997,-2.043715238571167
1763368293871487500,9.710487548828125,-0.8706148862838745,1.3542499542236328,-2.5645370483398438
1763368293881513500,9.720513427734375,-1.0494694709777832,0.6407670974731445,-2.659677267074585
1763368293891538400,9.730538330078126,-1.0011287927627563,0.25070327520370483,-2.701791763305664
1763368293901563400,9.7405634765625,-0.8548169136047363,0.20682695508003235,-2.7571232318878174
1763368293911588400,9.75058837890625,-0.7157777547836304,0.3539849817752838,-2.8240773677825928
1763368293921613600,9.760613525390625,-0.6471360921859741,0.500156044960022,-2.83044171333313
1763368293931638500,9.770638427734376,-0.6058533787727356,0.5521196126937866,-2.729228973388672
1763368293941664500,9.78066455078125,-0.5417828559875488,0.5753547549247742,-2.5496561527252197
1763368293951689500,9.790689453125,-0.46676212549209595,0.6932662129402161,-2.344316005706787
1763368293961714400,9.80071435546875,-0.40350112318992615,0.8629332780838013,-2.1357345581054688
1763368293971739400,9.810739501953124,-0.3470495641231537,1.0554492473602295,-1.987363338470459
1763368293981764400,9.820764404296876,-0.3198026716709137,1.2554970979690552,-1.8934365510940552
1763368293991790300,9.830790283203125,-0.30633828043937683,1.4263412952423096,-1.8443012237548828
1763368294001815300,9.840815185546875,-0.27934685349464417,1.5736162662506104,-1.806920051574707
1763368294011840300,9.85084033203125,-0.22623994946479797,1.6595655679702759,-1.7991892099380493
1763368294021865500,9.860865478515626,-0.12885189056396484,1.607334017753601,-1.8210468292236328
1763368294031890400,9.870890380859375,0.0020832247100770473,1.4163131713867188,-1.795732855796814
1763368294041916400,9.88091650390625,0.0853910967707634,1.163332462310791,-1.696199655532837
1763368294051941400,9.89094140625,0.1330145299434662,0.9434434771537781,-1.5814470052719116
1763368294061966300,9.90096630859375,0.18289324641227722,0.795014500617981,-1.5047945976257324
1763368294071991600,9.910991455078126,0.25490352511405945,0.7183641791343689,-1.4367704391479492
1763368294082016500,9.9210166015625,0.34926915168762207,0.7268648147583008,-1.3627042770385742
1763368294092042500,9.93104248046875,0.4274478554725647,0.8144418001174927,-1.2986419200897217
1763368294102067500,9.9410673828125,0.5213308334350586,1.0246831178665161,-1.2347651720046997
1763368294112092400,9.951092529296876,0.6459667682647705,1.2702065706253052,-1.1862378120422363
1763368294122117600,9.96111767578125,0.7553490996360779,1.3505865335464478,-1.1137639284133911
1763368294132142300,9.971142333984375,0.8116773366928101,1.2595655918121338,-1.0406614542007446
1763368294142168600,9.98116845703125,0.8794329762458801,1.161150574684143,-0.9280648827552795
1763368294152193300,9.991193359375,0.9638096690177917,1.0892164707183838,-0.7978776097297668
1763368294162218200,10.00121826171875,1.022251009941101,1.1788387298583984,-0.6384456157684326
1763368294172243500,10.011243408203125,1.2531516551971436,1.8284300565719604,-0.48020458221435547
1763368294182268400,10.021268310546875,1.516066074371338,2.136716365814209,-0.5250663161277771
1763368294192294400,10.03129443359375,1.6488286256790161,2.098684310913086,-0.6789741516113281
1763368294202319400,10.0413193359375,1.6816190481185913,2.078495740890503,-0.7870678305625916
1763368294212344300,10.05134423828125,1.6168582439422607,2.074709415435791,-0.8076543211936951
1763368294222369500,10.06136962890625,1.5012176036834717,2.136061429977417,-0.8419321775436401
1763368294232394500,10.07139453125,1.358627200126648,2.2012722492218018,-0.9112510681152344
1763368294242420500,10.08142041015625,1.202237606048584,2.219801664352417,-0.9745868444442749
1763368294252445400,10.091445556640625,1.0543562173843384,2.1980836391448975,-1.003429651260376
1763368294262470400,10.101470458984375,0.9206215143203735,2.2054216861724854,-0.990483283996582
1763368294272495600,10.11149560546875,0.8412100672721863,2.150956392288208,-0.9570766091346741
1763368294282520300,10.121520263671876,0.7703981995582581,2.0994129180908203,-0.9439040422439575
1763368294292546600,10.131546630859376,0.6888306736946106,2.082735776901245,-0.9561559557914734
1763368294302571300,10.1415712890625,0.593464195728302,2.0750420093536377,-0.9748180508613586
1763368294312596200,10.15159619140625,0.4997885525226593,2.089979410171509,-0.9830570816993713
1763368294322621400,10.161621337890624,0.3717505633831024,2.068476915359497,-0.9535021185874939
1763368294332646400,10.171646484375,0.2545890510082245,2.0564723014831543,-0.8968856930732727
1763368294342671400,10.18167138671875,0.15252600610256195,2.0394508838653564,-0.8261734247207642
1763368294352697300,10.191697265625,0.05898726359009743,1.8835304975509644,-0.7367194294929504
1763368294362722300,10.201722412109374,-0.03733193874359131,1.724661946296692,-0.6417737603187561
1763368294372747500,10.21174755859375,-0.10622498393058777,1.6137224435806274,-0.5585643649101257
1763368294382772500,10.2217724609375,-0.12485423684120178,1.4743046760559082,-0.48314929008483887
1763368294392797400,10.23179736328125,-0.0920528769493103,1.3375040292739868,-0.41139253973960876
1763368294402823400,10.241823486328125,-0.037626393139362335,1.2141950130462646,-0.33629563450813293
1763368294412848400,10.251848388671876,-0.003662566654384136,1.1181801557540894,-0.21572820842266083
1763368294422873600,10.26187353515625,0.06428312510251999,1.1155004501342773,-0.07523848116397858
1763368294432898600,10.271898681640625,0.16734826564788818,1.1426273584365845,0.08781115710735321
1763368294442923300,10.28192333984375,0.2792397737503052,1.1723709106445312,0.2222406566143036
1763368294452949500,10.291949462890624,0.39095938205718994,1.1491495370864868,0.3146001398563385
1763368294462974200,10.30197412109375,0.43943363428115845,1.0784623622894287,0.38943469524383545
1763368294472999400,10.31199951171875,0.46050751209259033,1.1760520935058594,0.39810195565223694
1763368294483024400,10.3220244140625,0.47476959228515625,1.250372290611267,0.3824068605899811
1763368294493049300,10.33204931640625,0.48643022775650024,1.3563991785049438,0.4335419237613678
1763368294503075300,10.342075439453126,0.4976734220981598,1.5430461168289185,0.5213618278503418
1763368294513100300,10.352100341796875,0.5219311118125916,1.6486135721206665,0.597555935382843
1763368294523125500,10.36212548828125,0.5646234154701233,1.5739275217056274,0.6654537916183472
1763368294533150500,10.372150390625,0.5992043018341064,1.2841039896011353,0.7460261583328247
1763368294543175400,10.382175537109376,0.6508547067642212,0.6846450567245483,0.8504018187522888
1763368294553201400,10.392201416015626,0.7610012292861938,0.07206849753856659,0.9187268018722534
1763368294563226400,10.402226318359375,0.8998526334762573,0.3080292046070099,0.9556072950363159
1763368294573251600,10.41225146484375,0.8919864892959595,1.23701810836792,0.8933175206184387
1763368294583276500,10.422276611328124,0.6771904826164246,1.5047307014465332,0.4313531219959259
1763368294593301200,10.43230126953125,0.4728945791721344,1.084149956703186,-0.15874400734901428
1763368294603327500,10.442327392578125,0.28796377778053284,1.0996947288513184,-0.37582358717918396
1763368294613352200,10.452352294921875,0.1630823165178299,1.3105486631393433,-0.235615074634552
1763368294623377400,10.46237744140625,0.0690348818898201,1.034806489944458,0.1100323274731636
1763368294633402400,10.47240234375,-0.0378769226372242,0.6371361613273621,0.4971342384815216
1763368294643427300,10.48242724609375,-0.22399789094924927,0.596688449382782,0.8542644381523132
1763368294653453300,10.492453369140625,-0.49628639221191406,0.8181561231613159,1.1659480333328247
1763368294663478300,10.502478271484375,-0.7820418477058411,0.8045616149902344,1.4243297576904297
1763368294673503500,10.51250341796875,-0.9603162407875061,0.4998680055141449,1.6248385906219482
1763368294683528400,10.522528564453125,-0.9996362328529358,0.14435788989067078,1.7587721347808838
1763368294693553400,10.532553466796875,-0.8337929248809814,0.005899872165173292,1.7656058073043823
1763368294703578400,10.542578369140625,-0.569023847579956,0.3007544279098511,1.4420077800750732
1763368294713604400,10.552604248046874,-0.26783955097198486,0.8872631788253784,0.9689207077026367
1763368294723629600,10.562629638671876,0.09262077510356903,1.5140286684036255,0.6565305590629578
1763368294733654500,10.572654541015625,0.2081465721130371,1.8309805393218994,0.5793644189834595
1763368294743679500,10.582679443359375,0.13176953792572021,1.789266586303711,0.5483137965202332
1763368294753705500,10.59270556640625,0.014137715101242065,1.5576171875,0.5102559328079224
1763368294763730400,10.60273046875,-0.1603367179632187,1.3802719116210938,0.42219480872154236
1763368294773755400,10.61275537109375,-0.29585781693458557,1.3794440031051636,0.306636780500412
1763368294783780400,10.6227802734375,-0.3795267641544342,1.3726468086242676,0.2637675404548645
1763368294793805300,10.632805419921874,-0.4015628397464752,1.3750828504562378,0.25902819633483887
1763368294803830300,10.642830322265626,-0.3539949357509613,1.4735783338546753,0.27523595094680786
1763368294813856300,10.652856201171875,-0.3119529187679291,1.665162444114685,0.3228205144405365
1763368294823882000,10.662882080078125,-0.24559661746025085,1.8622360229492188,0.449984610080719
1763368294833907000,10.672906982421875,-0.18978501856327057,2.0113489627838135,0.583662211894989
1763368294843931600,10.682931640625,-0.0768454447388649,2.061553955078125,0.6886965036392212
1763368294853956600,10.69295654296875,0.0598764531314373,1.9733076095581055,0.7534552812576294
1763368294863982600,10.702982666015625,0.17157389223575592,1.800473690032959,0.7671856880187988
1763368294874007800,10.7130078125,0.27827873826026917,1.6034386157989502,0.7376667261123657
1763368294884032800,10.72303271484375,0.37689119577407837,1.4001760482788086,0.7046844959259033
1763368294894057700,10.7330576171875,0.42567870020866394,1.2015841007232666,0.7000170350074768
1763368294904082700,10.743082763671875,0.4457252323627472,1.0048807859420776,0.7262409329414368
1763368294914108700,10.753108642578125,0.4416319727897644,0.7893192172050476,0.7680392861366272
1763368294924134000,10.7631337890625,0.4372761845588684,0.5864401459693909,0.8155641555786133
1763368294934158800,10.773158935546874,0.425465852022171,0.41917046904563904,0.8774131536483765
1763368294944183800,10.783183837890626,0.3875500559806824,0.3299887180328369,0.9483771324157715
1763368294954208800,10.793208740234375,0.3252438008785248,0.351913183927536,1.0173840522766113
1763368294964234800,10.80323486328125,0.23488371074199677,0.4955504536628723,1.0513896942138672
1763368294974260000,10.813260009765624,0.10168943554162979,0.7441319823265076,1.0566949844360352
1763368294984285000,10.823284912109376,-0.040444374084472656,1.0393997430801392,1.0150312185287476
1763368294994310000,10.833309814453125,-0.1613236665725708,1.2946152687072754,0.9266267418861389
1763368295004334600,10.84333447265625,-0.23335735499858856,1.443118929862976,0.8029710650444031
1763368295014360600,10.853360595703125,-0.2776678204536438,1.4161638021469116,0.6616672277450562
1763368295024385800,10.8633857421875,-0.28130805492401123,1.1767688989639282,0.4873865842819214
1763368295034410800,10.87341064453125,-0.244508758187294,0.7892909049987793,0.3035901188850403
1763368295044435700,10.883435791015625,-0.18847757577896118,0.368676096200943,0.14244699478149414
1763368295054460700,10.893460693359375,-0.12508182227611542,-0.04080170765519142,-0.027305830270051956
1763368295064486000,10.90348583984375,-0.06144702434539795,-0.38441842794418335,-0.24164707958698273
1763368295074512000,10.913511962890626,-0.03611903265118599,-0.6005477905273438,-0.5234694480895996
1763368295084536800,10.923536865234375,0.0031563960947096348,-0.6516969203948975,-0.9403198957443237
1763368295094561800,10.933561767578125,0.12010405957698822,-0.4921775758266449,-1.4173738956451416
1763368295104586800,10.943586669921874,0.3203467130661011,-0.11296164244413376,-1.8125699758529663
1763368295114612000,10.953612060546876,0.5082319378852844,0.4025283455848694,-2.000408887863159
1763368295124638000,10.963637939453125,0.6158350110054016,0.8893646597862244,-2.009101152420044
1763368295134663000,10.973662841796875,0.6592376232147217,1.204315423965454,-2.0044825077056885
1763368295144687900,10.98368798828125,0.6245934963226318,1.3002188205718994,-2.0864644050598145
1763368295154712600,10.993712646484376,0.4241034984588623,1.2440863847732544,-2.342278242111206
1763368295164737800,11.00373779296875,0.06314042210578918,1.065105676651001,-2.895447254180908
1763368295174763800,11.013763671875,-0.28705352544784546,0.892387866973877,-3.4392714500427246
1763368295184788700,11.023788818359375,-0.5424632430076599,0.6688200235366821,-3.7913150787353516
1763368295194813700,11.033813720703124,-0.7065246105194092,0.3059115409851074,-3.925708055496216
1763368295204838700,11.043838623046875,-0.7207778692245483,-0.16928648948669434,-3.9138782024383545
1763368295214864000,11.05386376953125,-0.6386374235153198,-0.2971949279308319,-3.82008957862854
1763368295224889900,11.063889892578125,-0.3451310098171234,-0.26878711581230164,-3.6369736194610596
1763368295234914800,11.073914794921874,0.20949038863182068,-0.09452607482671738,-3.3077645301818848
1763368295244939800,11.083939697265626,0.5554559826850891,0.1934625506401062,-2.9511570930480957
1763368295254964700,11.09396484375,0.6970522403717041,0.2710569500923157,-2.736661672592163
1763368295264990000,11.103989990234375,0.8022278547286987,0.12753641605377197,-2.4997403621673584
1763368295275016000,11.114015869140625,0.9366381764411926,0.011839108541607857,-2.248443126678467
1763368295285041000,11.124041015625,1.215221881866455,0.19464805722236633,-2.0429890155792236
1763368295295065900,11.13406591796875,1.5916415452957153,0.2048998773097992,-2.2030766010284424
1763368295305090800,11.1440908203125,1.7161014080047607,0.4984424114227295,-2.6592519283294678
1763368295315115800,11.15411572265625,1.853428840637207,1.243328332901001,-3.092533588409424
1763368295325140700,11.164140625,1.9473201036453247,2.0579652786254883,-3.4090194702148438
1763368295335166700,11.174166748046876,1.9822802543640137,2.609274387359619,-3.5460124015808105
1763368295345191700,11.184191650390625,1.920920729637146,2.947495460510254,-3.553436040878296
1763368295355216600,11.194216552734375,1.7290003299713135,2.8519556522369385,-3.479405164718628
1763368295365241900,11.204241943359374,1.5213398933410645,2.6619744300842285,-3.379166603088379
1763368295375266800,11.214266845703126,1.3401941061019897,2.6404402256011963,-3.3648159503936768
1763368295385292800,11.224292724609375,1.2610944509506226,2.4991416931152344,-3.388596534729004
1763368295395317800,11.23431787109375,1.1801271438598633,2.4316935539245605,-3.4254932403564453
1763368295405342700,11.2443427734375,1.062239408493042,2.671812057495117,-3.510373115539551
1763368295415368000,11.254367919921876,0.9470638036727905,2.716339588165283,-3.4585916996002197
1763368295425393000,11.264392822265625,0.92977374792099,2.259249210357666,-3.1886026859283447
1763368295435419000,11.2744189453125,0.8347545862197876,1.9593428373336792,-2.904766321182251
1763368295445443800,11.28444384765625,0.7802939414978027,1.7277370691299438,-2.6580584049224854
1763368295455468800,11.29446875,0.824952244758606,1.4223483800888062,-2.3912885189056396
1763368295465493800,11.30449365234375,0.8271914720535278,1.2397010326385498,-2.164508819580078
1763368295475518700,11.314518798828125,0.8825234174728394,0.9880051612854004,-1.895922303199768
1763368295485544700,11.324544677734375,0.9643226861953735,0.6908692717552185,-1.5969429016113281
1763368295495569700,11.334569580078124,1.0725783109664917,0.32849451899528503,-1.2419147491455078
1763368295505594600,11.3445947265625,1.102002739906311,0.4597346782684326,-1.017749309539795
1763368295515619800,11.354619873046875,1.1417325735092163,0.5907227993011475,-0.8231419324874878
1763368295525644800,11.364644775390625,1.1997663974761963,0.5160577893257141,-0.5565352439880371
1763368295535669800,11.374669677734374,1.1388564109802246,0.6152504086494446,-0.3322678208351135
1763368295545695700,11.38469580078125,1.1043777465820312,0.5900518894195557,-0.09899086505174637
1763368295555720700,11.394720703125,1.0830554962158203,0.5743848085403442,0.059766825288534164
1763368295565746000,11.404745849609375,1.0709819793701172,0.5865146517753601,0.1812378615140915
1763368295575771000,11.41477099609375,1.0776896476745605,0.5952865481376648,0.33116528391838074
1763368295585795800,11.4247958984375,1.09090256690979,0.5571993589401245,0.5348296761512756
1763368295595821800,11.43482177734375,1.1397042274475098,0.45531612634658813,0.7835904955863953
1763368295605846800,11.4448466796875,1.1965373754501343,0.37668702006340027,1.0454647541046143
1763368295615871700,11.454871826171875,1.2366368770599365,0.30133554339408875,1.3406583070755005
1763368295625896700,11.464896728515624,1.255516767501831,-0.14930276572704315,1.429817795753479
1763368295635921700,11.474921630859376,1.1161410808563232,-1.5175704956054688,0.24560986459255219
1763368295645947600,11.48494775390625,1.0275388956069946,-1.646828293800354,-0.455276757478714
1763368295655972600,11.49497265625,0.9835107922554016,-0.18959179520606995,0.5271625518798828
1763368295665997800,11.504997802734374,0.8691935539245605,1.7622928619384766,1.2656522989273071
1763368295676022800,11.515022705078126,0.992821455001831,1.3483468294143677,1.094115972518921
1763368295686047700,11.5250478515625,0.9120940566062927,-0.5936757326126099,0.12968729436397552
1763368295696073700,11.53507373046875,0.6094015836715698,0.348890483379364,0.04783531650900841
1763368295706098700,11.5450986328125,0.26640909910202026,1.6569911241531372,0.8393089175224304
1763368295716124000,11.5551240234375,0.09291348606348038,0.4518077075481415,1.2779818773269653
1763368295726148900,11.56514892578125,0.11381903290748596,-0.7924387454986572,1.5140024423599243
1763368295736173800,11.575173828125,0.16941997408866882,-0.8825204372406006,1.8539676666259766
1763368295746199800,11.58519970703125,0.1153552234172821,-0.6474360823631287,1.9590575695037842
1763368295756224800,11.595224853515624,-0.00744047574698925,-0.4502146244049072,2.0442161560058594
1763368295766250000,11.60525,0.006571060046553612,-0.515113115310669,2.0157630443573
1763368295776274700,11.615274658203125,0.09929487109184265,-0.3602100908756256,1.9223030805587769
1763368295786299600,11.625299560546875,0.17478488385677338,-0.06273262202739716,1.897950530052185
1763368295796324600,11.63532470703125,0.23419147729873657,-0.008908003568649292,1.914897084236145
1763368295806350600,11.6453505859375,0.2678956985473633,-0.11765335500240326,1.955312967300415
1763368295816375800,11.655375732421875,0.24423936009407043,-0.19410577416419983,1.9903769493103027
1763368295826402300,11.66540234375,0.17189964652061462,-0.2347264438867569,2.00697922706604
1763368295836427300,11.67542724609375,0.07723119854927063,-0.29525718092918396,2.078542947769165
1763368295846452200,11.6854521484375,0.018154839053750038,-0.48523205518722534,2.1973230838775635
1763368295856478200,11.695478271484374,-0.008295676670968533,-0.6733524203300476,2.294847249984741
1763368295866503200,11.705503173828125,0.00607548700645566,-0.8647463321685791,2.3595449924468994
1763368295876528400,11.7155283203125,-0.014836719259619713,-0.88231360912323,2.4315948486328125
1763368295886553000,11.725552978515625,-0.07696348428726196,-0.8964205384254456,2.483591079711914
1763368295896578000,11.735578125,-0.1780911684036255,-0.8890094757080078,2.54467511177063
1763368295906604000,11.74560400390625,-0.34232276678085327,-0.906701922416687,2.57670521736145
1763368295916629000,11.75562890625,-0.5192993879318237,-0.8990147113800049,2.6251964569091797
1763368295926654200,11.765654296875,-0.6602016687393188,-0.805334746837616,2.6433498859405518
1763368295936679200,11.77567919921875,-0.7008185982704163,-0.7388052344322205,2.6129140853881836
1763368295946704100,11.7857041015625,-0.6899081468582153,-0.5351107120513916,2.5212812423706055
1763368295956730000,11.795730224609375,-0.6780922412872314,-0.38135388493537903,2.4346866607666016
1763368295966755000,11.805755126953125,-0.720614492893219,-0.2858408987522125,2.373396873474121
1763368295976780300,11.8157802734375,-0.8068793416023254,-0.1497911810874939,2.276808500289917
1763368295986805200,11.82580517578125,-0.9163783192634583,0.06311700493097305,2.1594369411468506
1763368295996830200,11.835830322265625,-0.9508820176124573,0.4195976257324219,2.0252227783203125
1763368296006856200,11.845856201171875,-0.9323927760124207,0.871976912021637,1.8571933507919312
1763368296016881200,11.855881103515625,-0.8121912479400635,1.2853105068206787,1.7020188570022583
1763368296026906400,11.86590625,-0.6685304045677185,1.5631344318389893,1.6116509437561035
1763368296036931300,11.875931396484376,-0.4884432554244995,1.6610476970672607,1.6063318252563477
1763368296046956000,11.8859560546875,-0.2869586646556854,1.3446474075317383,1.6944018602371216
1763368296056981000,11.89598095703125,-0.13383996486663818,0.7964301109313965,1.82267427444458
1763368296067007000,11.906007080078124,-0.014343306422233582,0.21554958820343018,1.9669890403747559
1763368296077032200,11.9160322265625,0.05899908393621445,-0.27075082063674927,2.104886293411255
1763368296087057200,11.92605712890625,0.1091388687491417,-0.6338712573051453,2.2347137928009033
1763368296097082000,11.93608203125,0.13174991309642792,-0.7744816541671753,2.342205762863159
1763368296107107000,11.946107177734374,0.14401595294475555,-0.6820763349533081,2.424943685531616
1763368296117133000,11.956133056640626,0.1540222465991974,-0.6019381284713745,2.4423162937164307
1763368296127158300,11.966158203125,0.19204534590244293,-0.8823490738868713,2.3386075496673584
1763368296137183200,11.976183349609375,0.17553642392158508,-1.516049861907959,2.1463611125946045
1763368296147208200,11.986208251953125,0.13021592795848846,-2.2657954692840576,1.940582513809204
1763368296157233200,11.996233154296876,0.1923096626996994,-2.7664477825164795,1.806039810180664
1763368296167259100,12.006259033203126,0.4377422034740448,-2.768105983734131,1.9031919240951538
1763368296177284400,12.016284423828125,0.6697589159011841,-2.254849672317505,2.122697353363037
1763368296187309300,12.026309326171875,0.49976974725723267,-1.280635118484497,2.2276251316070557
1763368296197334000,12.036333984375,0.17428834736347198,0.06933513283729553,1.9801390171051025
1763368296207359000,12.04635888671875,-0.14422732591629028,1.6405088901519775,1.362356185913086
1763368296217385000,12.056385009765625,-0.5311958193778992,3.2290008068084717,0.5464740991592407
1763368296227410200,12.06641015625,-0.7270784974098206,4.452265739440918,-0.10518086701631546
1763368296237435100,12.07643505859375,-0.73773592710495,5.026645660400391,-0.39784950017929077
1763368296247460000,12.086460205078126,-0.49058279395103455,4.156861305236816,-0.39052850008010864
1763368296257485000,12.096485107421875,0.030179962515830994,1.110947847366333,-0.15570878982543945
1763368296267511000,12.106510986328125,0.549849271774292,-2.404346227645874,0.22355438768863678
1763368296277536300,12.116536376953125,0.7639000415802002,-4.2574286460876465,0.532547116279602
1763368296287561200,12.126561279296874,0.858641505241394,-4.787855625152588,0.624599277973175
1763368296297586200,12.136586181640626,0.8803555965423584,-4.553980827331543,0.533295750617981
1763368296307611100,12.146611083984375,0.751013457775116,-3.9295811653137207,0.28266987204551697
1763368296317637000,12.15663720703125,0.4958415925502777,-2.9574391841888428,-0.0579976886510849
1763368296327662300,12.166662353515624,0.1847754716873169,-2.023726463317871,-0.24395129084587097
1763368296337687300,12.176687255859376,-0.04609077051281929,-1.2154884338378906,-0.21443122625350952
1763368296347712300,12.186712158203125,-0.19171403348445892,-0.3269452750682831,-0.07589282095432281
1763368296357737000,12.196737060546875,-0.22742408514022827,0.7637944221496582,0.04243409261107445
1763368296367763000,12.206762939453125,-0.2923946678638458,1.8192826509475708,0.20747050642967224
1763368296377788200,12.2167880859375,-0.3661362826824188,2.6192541122436523,0.4014628827571869
1763368296387813000,12.226813232421875,-0.34872376918792725,3.1689441204071045,0.45076996088027954
1763368296397838000,12.236838134765625,-0.3691273033618927,3.598888635635376,0.2640349566936493
1763368296407863000,12.246863037109375,-0.47519412636756897,3.90362811088562,-0.10147004574537277
1763368296417888300,12.25688818359375,-0.5747354030609131,3.7973344326019287,-0.6503198742866516
1763368296427914200,12.266914306640626,-0.6217455267906189,2.6731855869293213,-1.2482562065124512
1763368296437939200,12.276939208984375,-0.5050458312034607,0.6445615887641907,-1.3732059001922607
1763368296447964200,12.286964111328125,-0.2340412586927414,-1.2518277168273926,-1.005202293395996
1763368296457989000,12.296989013671874,0.04947167634963989,-2.3900935649871826,-0.5609867572784424
1763368296468014300,12.307014404296876,0.27046510577201843,-2.683232307434082,-0.28548091650009155
1763368296478040300,12.317040283203125,0.3578876256942749,-2.428635835647583,-0.18947315216064453
1763368296488065300,12.327065185546875,0.30447813868522644,-1.898712158203125,-0.3133799135684967
1763368296498090200,12.33709033203125,0.13754108548164368,-1.163557767868042,-0.6082192659378052
1763368296508115000,12.347114990234376,-0.11425749957561493,-0.3478829562664032,-0.9341952204704285
1763368296518140200,12.35714013671875,-0.32173797488212585,0.3520415723323822,-1.2653700113296509
1763368296528166100,12.367166259765625,-0.4750608801841736,0.8766471743583679,-1.5534579753875732
1763368296538191000,12.377191162109375,-0.5910098552703857,1.2616621255874634,-1.864613652229309
1763368296548216000,12.387216064453124,-0.6593435406684875,1.568004846572876,-2.2579092979431152
1763368296558241000,12.397240966796875,-0.6784650087356567,1.800907850265503,-2.716106653213501
1763368296568266200,12.407266357421875,-0.6768894791603088,1.9197982549667358,-3.2168385982513428
1763368296578292200,12.417292236328125,-0.6241087913513184,1.6335363388061523,-3.8233511447906494
1763368296588317200,12.427317138671874,-0.5479509234428406,0.8769569993019104,-4.3122100830078125
1763368296598342100,12.437342041015626,-0.4372025430202484,-0.27769404649734497,-4.253414154052734
1763368296608367000,12.4473671875,-0.40248748660087585,-1.4525078535079956,-3.5091893672943115
1763368296618392300,12.457392333984375,-0.645356297492981,-2.3119122982025146,-2.6307480335235596
1763368296628418300,12.467418212890625,-0.6095399260520935,-2.9718427658081055,-2.072064161300659
1763368296638443300,12.477443359375,-0.07571963220834732,-3.6416239738464355,-1.8633638620376587
1763368296648468200,12.48746826171875,0.20878185331821442,-3.5193545818328857,-2.039768934249878
1763368296658493000,12.497492919921875,0.08789670467376709,-2.879589080810547,-2.3747081756591797
1763368296668518100,12.50751806640625,-0.003191187046468258,-2.2754647731781006,-2.7880539894104004
1763368296678544100,12.517544189453124,-0.07781775295734406,-1.7717936038970947,-3.063973903656006
1763368296688569000,12.527569091796876,0.003959869034588337,-1.2241017818450928,-3.11590313911438
1763368296698594000,12.537593994140625,0.003833369119092822,-0.3640997111797333,-3.2677440643310547
1763368296708619000,12.547618896484375,-0.0016418821178376675,0.3863438069820404,-3.566709280014038
1763368296718644200,12.557644287109374,0.0821763128042221,0.7840360403060913,-3.8951315879821777
1763368296728670200,12.567670166015626,0.16104356944561005,0.7034309506416321,-4.116142749786377
1763368296738695200,12.577695068359375,0.3100607693195343,0.19619543850421906,-4.063353061676025
1763368296748720000,12.58772021484375,0.3945122957229614,-0.14305269718170166,-3.756129264831543
1763368296758745000,12.5977451171875,0.5359514355659485,-0.27676230669021606,-3.433495283126831
1763368296768770300,12.607770263671876,0.8001350164413452,-0.37105879187583923,-3.002559185028076
