time,seconds_elapsed,z,y,x
1763368284226019300,0.065019287109375,0.25807175040245056,0.5545023679733276,0.8133879899978638
1763368284236045300,0.07504541015625,0.5140705108642578,0.8116691708564758,0.8588518500328064
1763368284246070300,0.0850703125,0.8393260836601257,1.0552303791046143,0.8525457978248596
1763368284256095500,0.095095458984375,1.1606154441833496,1.3804234266281128,0.8248310685157776
1763368284266120400,0.105120361328125,1.3615094423294067,1.7756801843643188,0.8288268446922302
1763368284276145400,0.1151455078125,1.3723878860473633,2.1345150470733643,0.8524650931358337
1763368284286170400,0.12517041015625,1.188144564628601,2.293527841567993,0.9015924334526062
1763368284296195600,0.135195556640625,0.8838352560997009,2.171595811843872,0.9683067202568054
1763368284306220300,0.14522021484375,0.5958660244941711,1.8441591262817383,1.0845561027526855
1763368284316245200,0.155245361328125,0.36528024077415466,1.4405970573425293,1.2207815647125244
1763368284326270500,0.1652705078125,0.11733780801296234,1.1029905080795288,1.3062379360198975
1763368284336296200,0.175296142578125,-0.11303867399692535,0.8656796813011169,1.185179352760315
1763368284346321400,0.1853212890625,-0.2588310241699219,0.5633682608604431,1.0102150440216064
1763368284356346400,0.195346435546875,-0.3050898611545563,0.31420212984085083,0.946662962436676
1763368284366371300,0.205371337890625,-0.289084255695343,0.16943083703517914,0.8813340067863464
1763368284376396500,0.215396484375,-0.2771535813808441,0.2557809054851532,0.7307250499725342
1763368284386421500,0.22542138671875,-0.21896563470363617,0.557923436164856,0.5393287539482117
1763368284396446500,0.235446533203125,-0.10161610692739487,1.0690282583236694,0.32032766938209534
1763368284406471400,0.245471435546875,0.062490008771419525,1.6620620489120483,0.07065313309431076
1763368284416496600,0.25549658203125,0.1952400654554367,1.892585277557373,-0.2120233029127121
1763368284426522400,0.2655224609375,0.20251129567623138,1.620990514755249,-0.5063889026641846
1763368284436547600,0.275547607421875,0.07354772090911865,1.1701759099960327,-0.8004212975502014
1763368284446572300,0.285572265625,-0.15009762346744537,0.6926453113555908,-1.0914193391799927
1763368284456597200,0.29559716796875,-0.4011213183403015,0.32545533776283264,-1.3843069076538086
1763368284466622500,0.30562255859375,-0.6399996876716614,0.2768084406852722,-1.545593500137329
1763368284476647400,0.3156474609375,-0.8208301663398743,0.38898396492004395,-1.5594773292541504
1763368284486672400,0.32567236328125,-0.8841902613639832,0.6509397029876709,-1.4335745573043823
1763368284496697300,0.335697265625,-0.8084443807601929,1.0931522846221924,-1.2055903673171997
1763368284506722600,0.34572265625,-0.7329410910606384,1.5512473583221436,-0.9467707872390747
1763368284516748500,0.35574853515625,-0.7385550141334534,1.8469791412353516,-0.6310818195343018
1763368284526773500,0.3657734375,-0.8388730883598328,2.0559983253479004,-0.26539331674575806
1763368284536798500,0.375798583984375,-1.0640475749969482,2.030872106552124,0.11727149784564972
1763368284546823400,0.385823486328125,-1.4264910221099854,2.207425832748413,0.4628557860851288
1763368284556848600,0.3958486328125,-1.7833781242370605,2.6935362815856934,0.7192436456680298
1763368284566873300,0.405873291015625,-2.110349178314209,3.1650710105895996,0.8511228561401367
1763368284576898300,0.415898193359375,-2.418405055999756,3.8378493785858154,0.7431119680404663
1763368284586923300,0.42592333984375,-2.772113800048828,4.4803996086120605,0.4318011999130249
1763368284596948500,0.435948486328125,-3.1709659099578857,4.750288009643555,0.13298948109149933
1763368284606974500,0.445974365234375,-3.3622243404388428,4.545039176940918,-0.010898986831307411
1763368284616999400,0.45599951171875,-3.219928026199341,4.209092617034912,-0.048642102628946304
1763368284627024400,0.4660244140625,-2.8443264961242676,4.026649475097656,-0.07233225554227829
1763368284637049300,0.47604931640625,-2.404637098312378,4.08632230758667,-0.10964580625295639
1763368284647074600,0.486074462890625,-2.0765042304992676,4.195260047912598,-0.1650795042514801
1763368284657099500,0.496099609375,-1.8998264074325562,4.028275489807129,-0.16178756952285767
1763368284667124500,0.50612451171875,-1.7923702001571655,3.613499164581299,-0.06853298842906952
1763368284677149200,0.516149169921875,-1.7579973936080933,3.230024814605713,0.08427733182907104
1763368284687175400,0.526175537109375,-1.8356825113296509,2.9967033863067627,0.2708461582660675
1763368284697200400,0.536200439453125,-1.9769622087478638,2.955888032913208,0.4585460126399994
1763368284707225300,0.546225341796875,-2.0942752361297607,3.058100938796997,0.6448948383331299
1763368284717250300,0.556250244140625,-2.1637797355651855,3.194512367248535,0.8452601432800293
1763368284727275300,0.566275146484375,-2.1110193729400635,3.3796160221099854,0.9814608693122864
1763368284737300500,0.576300537109375,-1.9234987497329712,3.600187301635742,0.9852084517478943
1763368284747325400,0.586325439453125,-1.6678102016448975,3.689565896987915,0.9029935002326965
1763368284757350400,0.596350341796875,-1.3930742740631104,3.5785837173461914,0.7974260449409485
1763368284767375400,0.606375244140625,-1.1106619834899902,3.336139678955078,0.7082695364952087
1763368284777401300,0.6164013671875,-0.9220678806304932,3.01961350440979,0.7066966891288757
1763368284787426600,0.626426513671875,-0.887197732925415,2.734382152557373,0.805448591709137
1763368284797451500,0.636451416015625,-0.9892317056655884,2.502703905105591,0.9755976796150208
1763368284807476500,0.6464765625,-1.160659670829773,2.4539434909820557,1.154532790184021
1763368284817500400,0.65650048828125,-1.2576570510864258,2.534022331237793,1.2613193988800049
1763368284827525400,0.666525390625,-1.182478666305542,2.6433660984039307,1.1979249715805054
1763368284837550300,0.67655029296875,-0.9678084254264832,2.6633973121643066,0.9717988967895508
1763368284847575600,0.686575439453125,-0.6413850784301758,2.4649524688720703,0.6104668378829956
1763368284857601300,0.696601318359375,-0.2886861264705658,2.0928568840026855,0.12991778552532196
1763368284867626500,0.70662646484375,-0.1098274290561676,1.6238819360733032,-0.36488476395606995
1763368284877651500,0.7166513671875,-0.1554172933101654,1.1212352514266968,-0.7903782725334167
1763368284887676400,0.726676513671875,-0.27600228786468506,0.6898428797721863,-1.1022943258285522
1763368284897701400,0.736701416015625,-0.27005624771118164,0.39449670910835266,-1.2717275619506836
1763368284907726600,0.7467265625,-0.049362488090991974,0.10811688005924225,-1.315559983253479
1763368284917751300,0.756751220703125,0.28310734033584595,-0.15372776985168457,-1.3492457866668701
1763368284927776300,0.7667763671875,0.5799288749694824,-0.3429677486419678,-1.4164307117462158
1763368284937801500,0.776801513671875,0.7273463010787964,-0.4267124533653259,-1.4701882600784302
1763368284947827500,0.786827392578125,0.6621459722518921,-0.41390955448150635,-1.500008463859558
1763368284957852400,0.796852294921875,0.4634590148925781,-0.3640642464160919,-1.50160551071167
1763368284967877400,0.80687744140625,0.24585051834583282,-0.3452889621257782,-1.478437066078186
1763368284977902300,0.81690234375,0.10253223031759262,-0.42861607670783997,-1.3997915983200073
1763368284987927600,0.826927490234375,0.109749935567379,-0.3076004385948181,-1.3025689125061035
1763368284997952500,0.836952392578125,0.15225078165531158,-0.11805073916912079,-1.212894320487976
1763368285007977500,0.8469775390625,0.14548449218273163,-0.030222883448004723,-1.2640326023101807
1763368285018002400,0.85700244140625,0.07954356074333191,0.005333778914064169,-1.4789817333221436
1763368285028028400,0.8670283203125,-0.05335589870810509,-0.07083901762962341,-1.7113549709320068
1763368285038053600,0.8770537109375,-0.18395784497261047,-0.22878897190093994,-1.8873531818389893
1763368285048078300,0.887078369140625,-0.28424397110939026,-0.32219481468200684,-1.9389431476593018
1763368285058103300,0.897103271484375,-0.3625033497810364,-0.42242342233657837,-1.8605340719223022
1763368285068128300,0.907128173828125,-0.4220154285430908,-0.5193790197372437,-1.727113962173462
1763368285078153500,0.917153564453125,-0.517338216304779,-0.6604985594749451,-1.5464574098587036
1763368285088178400,0.927178466796875,-0.6862814426422119,-1.020405650138855,-1.3301666975021362
1763368285098203400,0.937203369140625,-0.8668714165687561,-1.563076376914978,-1.1673774719238281
1763368285108229400,0.9472294921875,-1.0039714574813843,-2.084622859954834,-1.1337177753448486
1763368285118254300,0.95725439453125,-1.0542969703674316,-2.5901050567626953,-1.2320488691329956
1763368285128279600,0.967279541015625,-1.0558842420578003,-3.085392951965332,-1.391532063484192
1763368285138304500,0.977304443359375,-1.0571743249893188,-3.553638458251953,-1.5463337898254395
1763368285148329500,0.98732958984375,-1.0410046577453613,-3.9820258617401123,-1.6039133071899414
1763368285158354400,0.9973544921875,-1.0112675428390503,-4.273407936096191,-1.5418014526367188
1763368285168379400,1.00737939453125,-0.9257715344429016,-3.9939634799957275,-1.1419751644134521
1763368285178404400,1.017404296875,-0.7160760760307312,-2.5238656997680664,-0.38011616468429565
1763368285188429300,1.02742919921875,-0.41060352325439453,-0.6625089645385742,0.29333972930908203
1763368285198455300,1.037455322265625,-0.19202829897403717,0.4794776439666748,0.5573034882545471
1763368285208480300,1.047480224609375,-0.14968723058700562,0.48266011476516724,0.4330398440361023
1763368285218505500,1.05750537109375,-0.3435456454753876,0.06605251878499985,0.18445347249507904
1763368285228530400,1.067530517578125,-0.6653425693511963,-0.2354479432106018,-0.07348327338695526
1763368285238555400,1.077555419921875,-1.018236756324768,-0.31864988803863525,-0.28170090913772583
1763368285248580400,1.087580322265625,-1.3651001453399658,-0.3661646842956543,-0.4189695715904236
1763368285258605600,1.09760546875,-1.7032209634780884,-0.41665342450141907,-0.47246769070625305
1763368285268630500,1.107630615234375,-1.9743036031723022,-0.3192131519317627,-0.40399807691574097
1763368285278656500,1.117656494140625,-2.1132078170776367,-0.09753960371017456,-0.228766068816185
1763368285288681500,1.127681396484375,-2.068574905395508,0.12269049882888794,0.03586718812584877
1763368285298706200,1.1377060546875,-1.907165288925171,0.26374322175979614,0.36893489956855774
1763368285308731400,1.1477314453125,-1.6287394762039185,0.3688882887363434,0.7524804472923279
1763368285318756400,1.15775634765625,-1.2759889364242554,0.34307295083999634,1.1220592260360718
1763368285328781300,1.16778125,-0.9808520674705505,0.1713043749332428,1.3657320737838745
1763368285338806300,1.17780615234375,-0.8506381511688232,-0.11047617346048355,1.406864881515503
1763368285348831500,1.18783154296875,-0.8556478023529053,-0.3966938257217407,1.2612744569778442
1763368285358856400,1.1978564453125,-0.888011634349823,-0.4515291154384613,1.0481083393096924
1763368285368882400,1.20788232421875,-0.8549032211303711,-0.018142784014344215,0.9281877875328064
1763368285378907400,1.217907470703125,-0.8458117246627808,0.32983410358428955,1.0441814661026
1763368285388932400,1.227932373046875,-0.8060757517814636,0.46481454372406006,1.3079057931900024
1763368285398957600,1.23795751953125,-0.6896228790283203,0.9604375958442688,1.5386143922805786
1763368285408982500,1.247982421875,-0.5890270471572876,1.277654767036438,1.666514277458191
1763368285419007200,1.25800732421875,-0.4533216655254364,1.8860584497451782,1.465648889541626
1763368285429032400,1.268032470703125,-0.3044688105583191,2.8328661918640137,1.005751609802246
1763368285439058200,1.27805810546875,-0.10181557387113571,3.051251173019409,0.5792396664619446
1763368285449083400,1.28808349609375,0.26260659098625183,3.0131349563598633,0.13945269584655762
1763368285459108400,1.2981083984375,0.5425428748130798,2.2426466941833496,-0.0714036077260971
1763368285469133300,1.30813330078125,0.41314762830734253,1.2129878997802734,0.011908058077096939
1763368285479158500,1.318158447265625,0.18916405737400055,0.6294522285461426,0.28895190358161926
1763368285489183500,1.32818359375,-0.00812051072716713,0.33184105157852173,0.7621431946754456
1763368285499208400,1.33820849609375,-0.18917818367481232,1.1591917276382446,1.0421050786972046
1763368285509233400,1.3482333984375,-0.4189589023590088,1.742856740951538,1.0819706916809082
1763368285519259400,1.35825927734375,-0.723038911819458,1.4722598791122437,0.9672345519065857
1763368285529284400,1.368284423828125,-1.041263222694397,1.0785903930664062,0.7780480980873108
1763368285539309600,1.3783095703125,-1.3138500452041626,0.9023959040641785,0.5669984221458435
1763368285549334500,1.38833447265625,-1.387048363685608,0.969165563583374,0.3317965865135193
1763368285559359200,1.398359130859375,-1.3352007865905762,0.826677680015564,0.245631605386734
1763368285569384400,1.408384521484375,-1.163584589958191,-0.03503468260169029,0.3517566919326782
1763368285579409400,1.418409423828125,-0.9852103590965271,-0.013216735795140266,0.3903147578239441
1763368285589434400,1.428434326171875,-1.0016061067581177,0.2067025750875473,0.3057399392127991
1763368285599460400,1.43846044921875,-1.032160758972168,-0.25886964797973633,0.268051415681839
1763368285609485300,1.4484853515625,-0.9754480123519897,-0.6405062079429626,0.40904396772384644
1763368285619510500,1.458510498046875,-0.8901019096374512,-0.33817192912101746,0.5159720182418823
1763368285629535500,1.468535400390625,-0.8491707444190979,0.053948454558849335,0.6695122718811035
1763368285639560400,1.478560546875,-0.8935592770576477,0.537660539150238,0.8593378663063049
1763368285649585400,1.48858544921875,-1.1075828075408936,0.5864842534065247,1.0080642700195312
1763368285659610600,1.498610595703125,-1.417675495147705,0.10109226405620575,1.147226095199585
1763368285669635300,1.50863525390625,-1.630652666091919,-0.16934961080551147,1.1623315811157227
1763368285679661600,1.51866162109375,-1.670081377029419,0.15626870095729828,1.1429158449172974
1763368285689686300,1.528686279296875,-1.9012360572814941,0.6102361679077148,1.2259896993637085
1763368285699711200,1.538711181640625,-2.1084723472595215,-0.47918790578842163,1.434276819229126
1763368285709736400,1.548736328125,-1.7964882850646973,-0.8350623846054077,1.31606924533844
1763368285719761400,1.558761474609375,-1.458269476890564,-0.5684605240821838,0.9155817031860352
1763368285729786400,1.568786376953125,-1.2068140506744385,-0.7726117968559265,0.5315019488334656
1763368285739811300,1.578811279296875,-0.6596618294715881,-1.1861783266067505,0.24899889528751373
1763368285749837300,1.58883740234375,-0.2324572056531906,-0.9528225660324097,0.15267422795295715
1763368285759862500,1.598862548828125,-0.04819415882229805,-0.5887759327888489,0.2210487574338913
1763368285769887500,1.608887451171875,-0.018502311781048775,-0.22487784922122955,0.5389926433563232
1763368285779912400,1.618912353515625,0.08759456127882004,-0.1037684753537178,0.921642541885376
1763368285789937400,1.6289375,0.20270730555057526,-0.1470685452222824,1.2867323160171509
1763368285799962600,1.638962646484375,0.17717024683952332,-0.04458211362361908,1.4981915950775146
1763368285809987600,1.648987548828125,0.1379794329404831,-0.04893052577972412,1.55778169631958
1763368285820012500,1.659012451171875,0.1784040927886963,0.0013225257862359285,1.5419822931289673
1763368285830038500,1.66903857421875,0.1820441037416458,0.1730138510465622,1.4884217977523804
1763368285840063500,1.6790634765625,0.03945339843630791,0.3945228159427643,1.3607525825500488
1763368285850088700,1.689088623046875,-0.1590450406074524,0.4259582459926605,1.2084388732910156
1763368285860113700,1.69911376953125,-0.38392236828804016,0.3933960199356079,1.0668045282363892
1763368285870138600,1.709138671875,-0.6213359832763672,0.4235347509384155,0.9966203570365906
1763368285880163600,1.71916357421875,-0.7240714430809021,0.10508380830287933,1.0161445140838623
1763368285890188800,1.729188720703125,-0.7218735218048096,-0.5297288298606873,0.6831311583518982
1763368285900214800,1.73921484375,-0.6752684712409973,-0.8453421592712402,0.3290921449661255
1763368285910239700,1.74923974609375,-0.7848908305168152,-1.0080901384353638,0.05582784488797188
1763368285920264700,1.7592646484375,-0.9193469285964966,-1.0134714841842651,-0.11126048117876053
1763368285930289700,1.76928955078125,-0.9254980087280273,-0.9072849154472351,-0.13702842593193054
1763368285940315000,1.77931494140625,-0.9087608456611633,-0.741871178150177,-0.1255270391702652
1763368285950339600,1.789339599609375,-0.8861718773841858,-0.607829749584198,-0.1503109484910965
1763368285960364500,1.799364501953125,-0.9469923973083496,-0.5532131195068359,-0.23867568373680115
1763368285970389500,1.809389404296875,-1.1978557109832764,-0.425699919462204,-0.31943684816360474
1763368285980415500,1.81941552734375,-1.6512259244918823,-0.3351005017757416,-0.3556465208530426
1763368285990440700,1.829440673828125,-1.9888172149658203,-0.4451223313808441,-0.4114975333213806
1763368286000465700,1.839465576171875,-2.1217644214630127,-0.34536299109458923,-0.5797078609466553
1763368286010490600,1.84949072265625,-1.9647934436798096,-0.08869817852973938,-0.8756851553916931
1763368286020515600,1.859515625,-1.3215090036392212,-0.10069305449724197,-0.8049649596214294
1763368286030540800,1.869540771484375,-0.8694565892219543,0.14043568074703217,-0.5642157196998596
1763368286040565800,1.879565673828125,-1.5144059658050537,0.6531916260719299,-0.9071107506752014
1763368286050591700,1.889591796875,-2.247978448867798,0.951829731464386,-1.554181694984436
1763368286060616700,1.89961669921875,-2.3991124629974365,0.5910020470619202,-1.3010636568069458
1763368286070641700,1.9096416015625,-1.9450186491012573,1.0503238439559937,-0.47039440274238586
1763368286080666600,1.91966650390625,-1.202566385269165,1.8480262756347656,-0.07180334627628326
1763368286090691600,1.929691650390625,-0.8477877378463745,2.1827354431152344,-0.09871672093868256
1763368286100716500,1.939716552734375,-1.1537528038024902,1.704906702041626,-0.016936639323830605
1763368286110741500,1.949741455078125,-1.217228651046753,1.09908127784729,0.2682000398635864
1763368286120766700,1.9597666015625,-0.8485819101333618,0.6404018402099609,0.5758065581321716
1763368286130792700,1.969792724609375,-0.4838162064552307,0.5070078372955322,0.5251540541648865
1763368286140817700,1.979817626953125,-0.22492073476314545,0.44374576210975647,0.2883910536766052
1763368286150842600,1.989842529296875,0.3005813956260681,0.07680263370275497,-0.06703655421733856
1763368286160867600,1.99986767578125,0.842063307762146,-0.09553743898868561,-0.3482256233692169
1763368286170892800,2.009892822265625,0.7253689169883728,0.19816528260707855,-0.3741011619567871
1763368286180917800,2.019917724609375,0.635847270488739,-0.015095596201717854,-0.38388028740882874
1763368286190942700,2.029942626953125,0.11183199286460876,0.2415284663438797,-0.20388521254062653
1763368286200968700,2.03996875,-0.8386446237564087,1.2981237173080444,0.3633555769920349
1763368286210993700,2.04999365234375,-1.329907774925232,1.9519492387771606,0.7299503684043884
1763368286221018600,2.0600185546875,-0.6566561460494995,1.8314329385757446,0.4659426808357239
1763368286231043600,2.070043701171875,0.3015902042388916,1.6772361993789673,0.14386077225208282
1763368286241068500,2.080068603515625,1.099629282951355,0.9487346410751343,0.45419785380363464
1763368286251093500,2.090093505859375,1.843941330909729,-0.189930260181427,0.46081316471099854
1763368286261118700,2.10011865234375,2.337090492248535,-0.8612159490585327,0.13140755891799927
1763368286271144700,2.110144775390625,2.4913556575775146,-1.3519595861434937,-0.3603440821170807
1763368286281169700,2.120169677734375,2.6227598190307617,-2.3440051078796387,-0.9240865111351013
1763368286291194600,2.130194580078125,2.6646599769592285,-3.3404219150543213,-1.1555509567260742
1763368286301219600,2.140219482421875,2.5820446014404297,-3.670680522918701,-1.1909043788909912
1763368286311244800,2.150244873046875,2.391181230545044,-3.026778221130371,-1.0946638584136963
1763368286321269800,2.160269775390625,1.617331862449646,-1.7801332473754883,-0.627774715423584
1763368286331294700,2.170294677734375,0.3012658357620239,-0.8639717698097229,-0.15882612764835358
1763368286341320700,2.18032080078125,-0.5395617485046387,-0.007802529260516167,-0.3377852439880371
1763368286351345700,2.190345703125,-0.982310950756073,1.9652997255325317,-0.8356075286865234
1763368286361370600,2.20037060546875,-1.3400120735168457,3.2374446392059326,-0.8629523515701294
1763368286371395600,2.2103955078125,-1.621127963066101,2.6965487003326416,-0.18482257425785065
1763368286381420500,2.220420654296875,-1.771626353263855,1.6821513175964355,0.8422001600265503
1763368286391445800,2.23044580078125,-1.7946033477783203,1.3085579872131348,1.7171977758407593
1763368286401470700,2.240470703125,-1.3731777667999268,1.4849435091018677,2.0357871055603027
1763368286411496700,2.25049658203125,-0.6437680721282959,1.8731889724731445,1.464159369468689
1763368286421521700,2.260521728515625,-0.06737051904201508,1.7076712846755981,0.7643930315971375
1763368286431546600,2.270546630859375,0.35636797547340393,1.213865041732788,0.2808676064014435
1763368286441571800,2.28057177734375,0.6483697295188904,0.5702610611915588,0.011756258085370064
1763368286451596800,2.2905966796875,0.9198755621910095,-0.1465180665254593,-0.1597696840763092
1763368286461621800,2.300621826171875,1.229310393333435,-0.6386513113975525,-0.25300803780555725
1763368286471646500,2.310646484375,1.6050070524215698,-1.1603789329528809,0.006708769127726555
1763368286481672700,2.320672607421875,1.8852897882461548,-1.4025911092758179,0.6400537490844727
1763368286491697700,2.33069775390625,2.01263689994812,-0.8504727482795715,0.9198968410491943
1763368286501722600,2.34072265625,2.05722975730896,-0.6383730173110962,1.2614190578460693
1763368286511747600,2.35074755859375,1.8227193355560303,-0.8210464119911194,1.6184064149856567
1763368286521772500,2.3607724609375,1.2741193771362305,-0.4994199275970459,1.6061697006225586
1763368286531797800,2.3707978515625,0.9201735258102417,0.0717703253030777,1.2018324136734009
1763368286541822700,2.38082275390625,0.9209165573120117,-0.01782293990254402,1.048352837562561
1763368286551847700,2.39084765625,0.9396535158157349,-0.8290183544158936,1.0117039680480957
1763368286561873700,2.400873779296875,0.7861888408660889,-0.6705275177955627,0.7025054097175598
1763368286571898600,2.410898681640625,0.6020893454551697,0.07673525810241699,0.3563000559806824
1763368286581923800,2.420923828125,0.4284301698207855,0.5018357038497925,0.2699500024318695
1763368286591948800,2.43094873046875,0.1367035210132599,0.6909036040306091,0.23312486708164215
1763368286601973800,2.440973876953125,-0.35565662384033203,1.079063057899475,0.22648639976978302
1763368286611998500,2.45099853515625,-0.9719355702400208,1.7092106342315674,0.2642316520214081
1763368286622024700,2.461024658203125,-1.5736045837402344,2.3751795291900635,0.2532642185688019
1763368286632049700,2.471049560546875,-1.3139392137527466,2.762429714202881,0.1314413845539093
1763368286642074600,2.48107470703125,-0.40346890687942505,2.8029911518096924,0.11022131145000458
1763368286652099600,2.491099609375,0.3042445778846741,2.3506929874420166,0.08474098891019821
1763368286662124500,2.50112451171875,0.4037730395793915,1.84089994430542,-0.025487249717116356
1763368286672149800,2.511149658203125,0.4488169550895691,1.2031298875808716,-0.2936500012874603
1763368286682174700,2.5211748046875,0.4291481673717499,0.811060905456543,-0.7157266736030579
1763368286692200700,2.53120068359375,0.268195778131485,0.702264666557312,-1.1544510126113892
1763368286702225700,2.5412255859375,0.04440741240978241,0.8545114398002625,-1.3563692569732666
1763368286712250600,2.551250732421875,-0.11279232800006866,1.173073410987854,-1.132568597793579
1763368286722275800,2.56127587890625,-0.14313718676567078,1.5917367935180664,-0.7283244729042053
1763368286732300800,2.57130078125,-0.08433698117733002,1.9604274034500122,-0.3922995924949646
1763368286742325500,2.581325439453125,0.021630726754665375,1.9743189811706543,-0.15103985369205475
1763368286752350500,2.5913505859375,0.16732747852802277,1.7465119361877441,-0.03989202156662941
1763368286762376400,2.60137646484375,0.2592259645462036,1.3814047574996948,0.01587989740073681
1763368286772401700,2.611401611328125,0.3640836775302887,1.0606051683425903,-0.008069378323853016
1763368286782426600,2.621426513671875,0.4332691431045532,0.8524099588394165,-0.10477381944656372
1763368286792451600,2.63145166015625,0.3758159577846527,0.6707999110221863,-0.07340497523546219
1763368286802476500,2.6414765625,0.2742672264575958,0.5856120586395264,0.02057025581598282
1763368286812501800,2.651501708984375,0.13660524785518646,0.5316995978355408,0.055693089962005615
1763368286822526700,2.661526611328125,0.01635873317718506,0.4700908064842224,0.0380118303000927
1763368286832552700,2.671552734375,-0.0007155913626775146,0.42036160826683044,0.06899265199899673
1763368286842577700,2.68157763671875,0.008043811656534672,0.5055217742919922,0.11060693860054016
1763368286852602600,2.6916025390625,0.008204666897654533,0.653995931148529,0.12279462814331055
1763368286862627800,2.7016279296875,0.09177945554256439,0.7098610401153564,0.1533815711736679
1763368286872652800,2.71165283203125,0.07118149846792221,0.6359394192695618,0.22024741768836975
1763368286882677800,2.721677734375,-0.0428587831556797,0.6688315868377686,0.3188895583152771
1763368286892703700,2.731703857421875,-0.1478768140077591,0.8740848898887634,0.4300536513328552
1763368286902728700,2.741728759765625,-0.14298778772354126,1.2351272106170654,0.5892696380615234
1763368286912754000,2.75175390625,-0.1363075077533722,1.4214001893997192,0.6843631267547607
1763368286922779000,2.76177880859375,-0.10077135264873505,1.453766942024231,0.5912531614303589
1763368286932803800,2.771803955078125,-0.01577470265328884,1.3680716753005981,0.5039963126182556
1763368286942828800,2.781828857421875,0.13484810292720795,1.2159335613250732,0.6661652326583862
1763368286952853800,2.791853759765625,0.29103317856788635,1.2294610738754272,0.8341715335845947
1763368286962880000,2.8018798828125,0.3784745931625366,1.4242745637893677,0.9262330532073975
1763368286972904700,2.81190478515625,0.33170363306999207,1.7619335651397705,0.9773625135421753
1763368286982929700,2.8219296875,0.26819923520088196,2.0664446353912354,1.0484918355941772
1763368286992954600,2.83195458984375,0.2856655716896057,2.3270933628082275,1.1766433715820312
1763368287002979800,2.841979736328125,0.3672429919242859,2.464629650115967,1.201297640800476
1763368287013004800,2.8520048828125,0.4363909065723419,2.423191785812378,1.0960888862609863
1763368287023030800,2.86203076171875,0.43832728266716003,2.2764923572540283,0.9162853360176086
1763368287033055700,2.8720556640625,0.43969854712486267,2.0133132934570312,0.7498055696487427
1763368287043080700,2.882080810546875,0.4964984357357025,1.7708503007888794,0.5223369598388672
1763368287053106000,2.89210595703125,0.5107130408287048,1.5291913747787476,0.2855220139026642
1763368287063131000,2.902130859375,0.5520468950271606,1.6116676330566406,0.3854949474334717
1763368287073155800,2.91215576171875,0.49149489402770996,1.070181131362915,1.0531492233276367
1763368287083180800,2.922180908203125,0.2995361089706421,0.6889299154281616,1.1034225225448608
1763368287093206800,2.932206787109375,0.17909279465675354,0.21790648996829987,0.42113417387008667
1763368287103231700,2.942231689453125,-0.2261175513267517,-0.19787898659706116,-0.08117501437664032
1763368287113256700,2.952256591796875,-0.4722341299057007,-0.5668543577194214,-0.11143811047077179
1763368287123281700,2.96228173828125,-0.43157511949539185,-0.5505494475364685,0.09670976549386978
1763368287133306600,2.972306640625,-0.4086322486400604,-0.4916967749595642,0.4781433939933777
1763368287143331800,2.982331787109375,-0.4668177664279938,-0.5911756753921509,0.8687308430671692
1763368287153357800,2.99235791015625,-0.4996921122074127,-0.5319264531135559,1.0143545866012573
1763368287163382800,3.0023828125,-0.634490430355072,-0.23716647922992706,1.135108232498169
1763368287173407700,3.01240771484375,-0.6480733156204224,-0.10600632429122925,0.8556395769119263
1763368287183432700,3.0224326171875,-0.8911402821540833,-0.4627458155155182,0.4450826644897461
1763368287193458000,3.0324580078125,-1.1685298681259155,-0.6490424275398254,0.15837392210960388
1763368287203483000,3.04248291015625,-1.3631051778793335,-0.7568362951278687,0.1968507468700409
1763368287213508900,3.0525087890625,-1.6685678958892822,-0.8813430666923523,0.17037199437618256
1763368287223533800,3.062533935546875,-2.051915168762207,-1.0643744468688965,0.10101449489593506
1763368287233558800,3.072558837890625,-2.493208169937134,-1.1101067066192627,0.08405762165784836
1763368287243583700,3.082583740234375,-2.894144296646118,-1.1299140453338623,0.029377596452832222
1763368287253608700,3.092608642578125,-3.868941068649292,-1.2372548580169678,-0.1808941513299942
1763368287263633700,3.102633544921875,-3.7077224254608154,-0.6157614588737488,0.07567425072193146
1763368287273659600,3.11265966796875,-2.8593850135803223,0.0007590008899569511,0.3802615702152252
1763368287283684600,3.1226845703125,-2.119668483734131,0.261766642332077,0.44237715005874634
1763368287293709800,3.132709716796875,-1.6581556797027588,-0.05939807742834091,0.2629922032356262
1763368287303734800,3.14273486328125,-1.4974133968353271,-0.8739096522331238,-0.014253770932555199
1763368287313759700,3.152759765625,-1.4893749952316284,-1.6712944507598877,-0.30124717950820923
1763368287323784700,3.16278466796875,-1.4757225513458252,-2.0619983673095703,-0.5743650197982788
1763368287333810700,3.172810791015625,-1.2615418434143066,-2.121978759765625,-0.7021469473838806
1763368287343836000,3.1828359375,-1.1552706956863403,-1.9980450868606567,-0.543562650680542
1763368287353860900,3.19286083984375,-0.9416176080703735,-1.8222512006759644,-0.1654677838087082
1763368287363885800,3.2028857421875,-0.6588127613067627,-1.3982378244400024,0.334171861410141
1763368287373910800,3.212910888671875,-0.4461338222026825,-0.8582561016082764,0.7140688300132751
1763368287383935700,3.222935791015625,-0.21315382421016693,-0.6388896703720093,0.9567451477050781
1763368287393961700,3.232961669921875,0.06268388777971268,-0.7399886250495911,1.0896438360214233
1763368287403986700,3.242986572265625,0.17957241833209991,-0.6411222219467163,1.1376899480819702
1763368287414011600,3.25301171875,-0.11937858909368515,-0.3168511986732483,1.1602258682250977
1763368287424036900,3.263036865234375,-0.6405571103096008,0.07025472074747086,1.2705451250076294
1763368287434061800,3.273061767578125,-1.0853230953216553,0.27085334062576294,1.3781054019927979
1763368287444086800,3.283086669921875,-1.403857946395874,0.20395313203334808,1.3847830295562744
1763368287454112800,3.29311279296875,-1.701154112815857,-0.29280948638916016,1.1510370969772339
1763368287464137700,3.3031376953125,-2.1356325149536133,-0.8358248472213745,0.8647896647453308
1763368287474163000,3.313162841796875,-2.7374603748321533,-1.188223123550415,0.538856565952301
1763368287484188000,3.32318798828125,-3.370941638946533,-1.1566332578659058,0.3014354705810547
1763368287494212900,3.333212890625,-3.8878982067108154,-0.8631595373153687,0.1742090880870819
1763368287504237800,3.34323779296875,-4.180538654327393,-0.22597827017307281,0.27217480540275574
1763368287514263800,3.353263916015625,-4.094684600830078,0.5113096237182617,0.7085267901420593
1763368287524288800,3.363288818359375,-3.8926265239715576,1.019909143447876,1.1798112392425537
1763368287534313700,3.373313720703125,-3.7514069080352783,1.4185998439788818,1.5682146549224854
1763368287544338700,3.383338623046875,-3.7985942363739014,1.9060320854187012,1.9794527292251587
1763368287554363600,3.39336376953125,-4.267514705657959,2.346519947052002,2.4309003353118896
1763368287564388900,3.403388916015625,-4.6349196434021,2.0654568672180176,2.821719169616699
1763368287574414800,3.413414794921875,-4.7603302001953125,1.4017518758773804,3.038710832595825
1763368287584439800,3.423439697265625,-4.819079399108887,0.6580745577812195,2.827284336090088
1763368287594464800,3.43346484375,-4.254214763641357,0.25620728731155396,1.7939963340759277
1763368287604489700,3.44348974609375,-3.5365517139434814,-0.08183468133211136,0.2768169641494751
1763368287614515000,3.453514892578125,-3.3317060470581055,-1.1004061698913574,-0.6471425294876099
1763368287624540000,3.463539794921875,-3.1529715061187744,-2.0609004497528076,-1.2399425506591797
1763368287634566000,3.47356591796875,-2.9501380920410156,-2.0918028354644775,-1.3974990844726562
1763368287644590800,3.4835908203125,-2.788503885269165,-0.7183509469032288,-0.8509166836738586
1763368287654615800,3.49361572265625,-2.656080722808838,0.9661450386047363,0.509053647518158
1763368287664641000,3.50364111328125,-2.5628788471221924,1.6977505683898926,2.0157723426818848
1763368287674665700,3.513665771484375,-2.50226092338562,1.4073083400726318,3.0966567993164062
1763368287684690700,3.523690673828125,-2.7635886669158936,0.3990784287452698,3.641047239303589
1763368287694716700,3.533716552734375,-4.25893497467041,-0.5450369715690613,3.2273151874542236
1763368287704741600,3.54374169921875,-5.264021396636963,0.3480147123336792,1.3303900957107544
1763368287714766800,3.553766845703125,-1.8276363611221313,2.640872001647949,-2.1647863388061523
1763368287724791800,3.563791748046875,0.5728155970573425,3.568937301635742,-3.115020751953125
1763368287734816800,3.573816650390625,0.7614172101020813,3.496246337890625,-1.884583830833435
1763368287744841700,3.583841796875,0.6588660478591919,2.0086612701416016,-0.5093692541122437
1763368287754867700,3.59386767578125,0.3852265179157257,-0.27612826228141785,0.12525218725204468
1763368287764893000,3.603892822265625,-0.016694556921720505,-1.916629672050476,0.07039640098810196
1763368287774918000,3.61391796875,-0.12308171391487122,-2.6525871753692627,-0.25102850794792175
1763368287784942800,3.62394287109375,0.0023134879302233458,-2.654853582382202,-0.4937119781970978
1763368287794967800,3.6339677734375,0.06545597314834595,-2.195927381515503,-0.5523518323898315
1763368287804993800,3.643993896484375,-0.025727733969688416,-1.6144061088562012,-0.599452793598175
1763368287815019000,3.65401904296875,-0.16228611767292023,-0.9794472455978394,-0.7662593722343445
1763368287825044000,3.6640439453125,-0.2850804626941681,-0.4018014967441559,-1.0482923984527588
1763368287835069000,3.67406884765625,-0.4334092140197754,0.07337408512830734,-1.379348874092102
1763368287845094000,3.684093994140625,-0.5530365705490112,0.45290541648864746,-1.7429195642471313
1763368287855119000,3.694119140625,-0.6615843176841736,0.807253897190094,-2.1261048316955566
1763368287865145000,3.70414501953125,-0.7308129668235779,1.166804313659668,-2.4920291900634766
1763368287875170000,3.714170166015625,-0.752183735370636,1.4525146484375,-2.865279197692871
1763368287885195000,3.724195068359375,-0.7137426137924194,1.594550371170044,-3.256220579147339
1763368287895220000,3.734219970703125,-0.6779997944831848,1.470751166343689,-3.6401238441467285
1763368287905245200,3.7442451171875,-0.5874376893043518,0.9808589816093445,-3.8745107650756836
1763368287915270100,3.754270263671875,-0.46402812004089355,-0.19144506752490997,-3.996565580368042
1763368287925296000,3.764296142578125,-0.3626660704612732,-1.618758201599121,-3.709082841873169
1763368287935321000,3.774321044921875,-0.2602459490299225,-2.6751046180725098,-3.11867618560791
1763368287945346000,3.784345947265625,-0.11760945618152618,-3.311842679977417,-2.4724316596984863
1763368287955371300,3.794371337890625,0.05893069505691528,-3.363635778427124,-1.9160029888153076
1763368287965396000,3.80439599609375,0.24297776818275452,-3.0025734901428223,-1.722913384437561
1763368287975422200,3.814422119140625,0.31531932950019836,-2.2542226314544678,-2.0723459720611572
1763368287985447000,3.824447021484375,0.46716877818107605,-1.672551155090332,-2.6060431003570557
1763368287995472000,3.834471923828125,0.6692593097686768,-1.0828438997268677,-3.0178184509277344
1763368288005497000,3.8444970703125,0.8297358155250549,-0.7279524207115173,-3.1350576877593994
1763368288015522000,3.85452197265625,1.0396873950958252,-0.4972665011882782,-3.0805575847625732
1763368288025547000,3.864547119140625,1.0919204950332642,-0.3421725332736969,-3.037609815597534
1763368288035573000,3.874572998046875,1.062092900276184,-0.16005411744117737,-3.085510730743408
1763368288045598000,3.884597900390625,1.136518120765686,0.10881276428699493,-3.2135748863220215
1763368288055623200,3.894623046875,1.1845543384552002,0.46739888191223145,-3.380481481552124
1763368288065648000,3.904648193359375,1.198774814605713,1.0262470245361328,-3.494536876678467
1763368288075673000,3.914673095703125,1.1668493747711182,1.6508057117462158,-3.627354621887207
1763368288085699000,3.924698974609375,1.0964604616165161,1.9811079502105713,-3.7975361347198486
1763368288095724000,3.93472412109375,0.9673224091529846,2.0078272819519043,-3.8579516410827637
1763368288105749200,3.944749267578125,0.8557005524635315,1.9734827280044556,-3.7561328411102295
1763368288115774000,3.95477392578125,0.7025075554847717,2.0631678104400635,-3.6178436279296875
1763368288125799000,3.964798828125,0.5309075713157654,2.091540813446045,-3.4351017475128174
1763368288135824000,3.974823974609375,0.41136518120765686,2.0806260108947754,-3.159743070602417
1763368288145849900,3.984849853515625,0.32217031717300415,2.0772933959960938,-2.9128873348236084
1763368288155875000,3.994875,0.14797668159008026,1.8439236879348755,-2.6092560291290283
1763368288165900000,4.004900146484375,0.011597800068557262,1.679638147354126,-2.3160717487335205
1763368288175925000,4.014925048828125,-0.04145316779613495,1.711405873298645,-2.0889811515808105
1763368288185950000,4.024949951171875,-0.006767891347408295,1.8211838006973267,-1.9192171096801758
1763368288195975200,4.03497509765625,0.02672721818089485,1.562250018119812,-1.6318697929382324
1763368288206001200,4.045001220703125,0.07489608228206635,1.3574179410934448,-1.3568356037139893
1763368288216026000,4.055026123046875,0.09710684418678284,1.092513084411621,-1.1025633811950684
1763368288226051000,4.065051025390625,0.09630683064460754,0.758836567401886,-0.825396716594696
1763368288236076000,4.075075927734375,0.09406524896621704,0.3963254988193512,-0.5241247415542603
1763368288246101200,4.085101318359375,0.1294565200805664,0.04182121530175209,-0.21576504409313202
1763368288256127200,4.095127197265625,0.19486908614635468,-0.19282618165016174,0.04374455288052559
1763368288266152200,4.105152099609375,0.2759527564048767,-0.3952442705631256,0.28739210963249207
1763368288276177000,4.115177001953125,0.3977851867675781,-0.5094347596168518,0.5132158994674683
1763368288286201900,4.125201904296875,0.527802050113678,-0.4249874949455261,0.7316246628761292
1763368288296227000,4.13522705078125,0.677535355091095,-0.2649235427379608,0.9989599585533142
1763368288306252000,4.145251953125,0.8186432123184204,-0.127747043967247,1.3344117403030396
1763368288316278000,4.155278076171875,0.9212113618850708,-0.29906952381134033,1.5275380611419678
1763368288326303000,4.165302978515625,0.8310120105743408,-1.5703095197677612,0.5711082220077515
1763368288336328000,4.175327880859375,0.695695698261261,-1.9625645875930786,-0.47746002674102783
1763368288346353200,4.185353271484375,0.6401711702346802,-0.29940134286880493,0.3562220335006714
1763368288356378000,4.195378173828125,0.4232146441936493,1.1240246295928955,1.1956069469451904
1763368288366404000,4.205404052734375,0.29054394364356995,1.052565097808838,1.5931476354599
1763368288376429000,4.215428955078125,0.2436739057302475,-1.5453990697860718,0.7724791765213013
1763368288386454000,4.2254541015625,0.37937289476394653,-0.935088038444519,0.635545015335083
1763368288396479200,4.235479248046875,0.5072288513183594,1.3862017393112183,1.2425979375839233
1763368288406504200,4.245504150390625,0.3534696400165558,0.5241860151290894,1.281476378440857
1763368288416530200,4.2555302734375,0.42295604944229126,-0.6465238928794861,1.7160089015960693
1763368288426555000,4.265554931640625,0.5128228068351746,-0.6997325420379639,2.1033358573913574
1763368288436579800,4.275579833984375,0.4319530129432678,-0.4496757984161377,2.0313611030578613
1763368288446605000,4.28560498046875,0.3803550601005554,0.02472425438463688,2.0282511711120605
1763368288456630000,4.295630126953125,0.4252530336380005,0.18367795646190643,2.0211026668548584
1763368288466655000,4.305655029296875,0.47573164105415344,0.2211981564760208,2.0440101623535156
1763368288476681000,4.315680908203125,0.44716179370880127,0.2373097538948059,2.130344867706299
1763368288486706000,4.325705810546875,0.34020817279815674,0.15645831823349,2.206993818283081
1763368288496731100,4.335731201171875,0.20073603093624115,0.024827584624290466,2.310053586959839
1763368288506756000,4.345756103515625,0.020920194685459137,-0.19019363820552826,2.42256498336792
1763368288516781000,4.355781005859375,-0.1223035380244255,-0.47101038694381714,2.544802665710449
1763368288526806000,4.365805908203125,-0.21150745451450348,-0.7272768020629883,2.6588454246520996
1763368288536832000,4.37583203125,-0.247501939535141,-0.8378751873970032,2.7152976989746094
1763368288546857200,4.385857177734375,-0.2272760272026062,-0.8669079542160034,2.726046085357666
1763368288556882200,4.395882080078125,-0.19297318160533905,-0.9997597336769104,2.830674409866333
1763368288566907000,4.405906982421875,-0.20712921023368835,-1.2398513555526733,3.018399953842163
1763368288576931800,4.415931884765625,-0.31654998660087585,-1.3651938438415527,3.1298348903656006
1763368288586957800,4.425957763671875,-0.48435255885124207,-1.2674553394317627,3.1198952198028564
1763368288596983000,4.435983154296875,-0.6280503273010254,-1.110835075378418,3.0409674644470215
1763368288607008000,4.446008056640625,-0.730881929397583,-0.982902467250824,2.9079861640930176
1763368288617033000,4.456032958984375,-0.8078227639198303,-0.9168371558189392,2.7506473064422607
1763368288627058000,4.466057861328125,-0.8941006660461426,-0.8371878266334534,2.6324262619018555
1763368288637084000,4.476083984375,-0.9862462878227234,-0.725056529045105,2.507568597793579
1763368288647109000,4.486109130859375,-1.0300794839859009,-0.5832676887512207,2.426449775695801
1763368288657134000,4.496134033203125,-1.0374794006347656,-0.4160158634185791,2.3527534008026123
1763368288667159000,4.506158935546875,-1.0808870792388916,-0.21121451258659363,2.269815444946289
1763368288677184000,4.51618408203125,-1.1099027395248413,0.05415484681725502,2.2140660285949707
1763368288687210000,4.5262099609375,-1.1476376056671143,0.44299954175949097,2.1161611080169678
1763368288697235200,4.536235107421875,-1.0913093090057373,0.8485022783279419,2.0137085914611816
1763368288707260200,4.54626025390625,-0.8562872409820557,1.1738742589950562,1.8978058099746704
1763368288717284900,4.556284912109375,-0.4761766493320465,1.389963984489441,1.7493993043899536
1763368288727309800,4.566309814453125,-0.14629648625850677,1.4134833812713623,1.5965189933776855
1763368288737335000,4.5763349609375,0.05379345640540123,1.3141884803771973,1.4385488033294678
1763368288747361000,4.586361083984375,0.14826349914073944,1.161546230316162,1.2828843593597412
1763368288757386000,4.596385986328125,0.16639403998851776,1.0539311170578003,1.201609492301941
1763368288767411000,4.606410888671875,0.24284327030181885,0.8173696994781494,1.237923264503479
1763368288777436000,4.616435791015625,0.4223613739013672,0.3252097964286804,1.406801462173462
1763368288787461000,4.626461181640625,0.5655414462089539,-0.1988859325647354,1.652762770652771
1763368288797487000,4.636487060546875,0.6676307916641235,-0.615742564201355,1.871212363243103
1763368288807512000,4.646511962890625,0.7136414051055908,-0.8827164769172668,1.9667586088180542
1763368288817536800,4.656536865234375,0.6529684662818909,-0.9707453846931458,1.8403819799423218
1763368288827561700,4.666561767578125,0.5110515356063843,-0.9117127060890198,1.5210689306259155
1763368288837587000,4.6765869140625,0.32048293948173523,-0.8834842443466187,1.1695636510849
1763368288847612000,4.68661181640625,0.17637422680854797,-0.9193812608718872,0.9846071600914001
1763368288857638000,4.696637939453125,-0.0983998104929924,-0.854022741317749,0.9093477725982666
1763368288867662600,4.70666259765625,-0.2658356726169586,-0.5635560154914856,0.8363622426986694
1763368288877687800,4.716687744140625,-0.30778470635414124,-0.24671603739261627,0.7635037899017334
1763368288887712800,4.726712646484375,-0.3079620897769928,-0.06250812113285065,0.6861128211021423
1763368288897737700,4.73673779296875,-0.2732864022254944,0.02370373159646988,0.6300157308578491
1763368288907763700,4.746763671875,-0.17508286237716675,0.0936623066663742,0.6616439819335938
1763368288917788700,4.75678857421875,-0.06615424901247025,0.14666320383548737,0.696972131729126
1763368288927814000,4.76681396484375,0.016201606020331383,0.2034013271331787,0.6600689888000488
1763368288937838800,4.7768388671875,-0.00974210910499096,0.3607717752456665,0.5435458421707153
1763368288947863800,4.78686376953125,-0.1216990053653717,0.7146563529968262,0.36033740639686584
1763368288957889800,4.796889892578125,-0.24925030767917633,1.2353615760803223,0.1846606582403183
1763368288967914800,4.806914794921875,-0.3121272623538971,1.6443411111831665,0.06580937653779984
1763368288977940000,4.81693994140625,-0.2775202989578247,1.6892542839050293,0.007154315710067749
1763368288987965000,4.82696484375,-0.17816680669784546,1.2730594873428345,0.005251220893114805
1763368288997990000,4.836989990234375,-0.050514839589595795,0.450244665145874,0.05675062909722328
1763368289008014600,4.8470146484375,0.07324385643005371,-0.4645591676235199,0.12829618155956268
1763368289018040800,4.857040771484375,0.18449075520038605,-1.0899471044540405,0.15557920932769775
1763368289028065800,4.867065673828125,0.2689017653465271,-1.3764574527740479,0.09473662823438644
1763368289038090800,4.8770908203125,0.3557703495025635,-1.3855787515640259,-0.10287737846374512
1763368289048115700,4.88711572265625,0.437696635723114,-1.1539676189422607,-0.3416273593902588
1763368289058140700,4.897140625,0.4700356721878052,-0.7632119059562683,-0.5076677203178406
1763368289068166700,4.907166748046875,0.4762062132358551,-0.30085864663124084,-0.5433498620986938
1763368289078191900,4.91719189453125,0.44208234548568726,0.12705861032009125,-0.5325504541397095
1763368289088216800,4.927216796875,0.3255240321159363,0.4451521635055542,-0.5392515063285828
1763368289098241800,4.93724169921875,0.1416442096233368,0.5577031970024109,-0.572329580783844
1763368289108266800,4.947266845703125,-0.0784149169921875,0.5052525401115417,-0.6210805773735046
1763368289118292700,4.957292724609375,-0.2556959390640259,0.35983407497406006,-0.6589954495429993
1763368289128318000,4.96731787109375,-0.3476748764514923,0.23929886519908905,-0.6423126459121704
1763368289138343000,4.977343017578125,-0.36127856373786926,0.18754886090755463,-0.6115925312042236
1763368289148368000,4.987367919921875,-0.39890238642692566,0.1614978164434433,-0.6992989778518677
1763368289158392600,4.997392578125,-0.47419339418411255,0.12806741893291473,-0.9707136750221252
1763368289168418800,5.007418701171875,-0.5374804735183716,0.18488596379756927,-1.3878991603851318
1763368289178443800,5.01744384765625,-0.6094846725463867,0.3444924056529999,-1.9035425186157227
1763368289188468700,5.02746875,-0.6738079786300659,0.5636540651321411,-2.4703261852264404
1763368289198493700,5.03749365234375,-0.7320206761360168,0.7347203493118286,-3.033863067626953
1763368289208518700,5.0475185546875,-0.7747170329093933,0.832421600818634,-3.582520008087158
1763368289218543900,5.0575439453125,-0.773842990398407,0.7795541286468506,-4.028611183166504
1763368289228569900,5.06756982421875,-0.7901332378387451,0.46029356122016907,-4.177886486053467
1763368289238594800,5.0775947265625,-0.866422712802887,-0.1573571264743805,-4.038221836090088
1763368289248619800,5.087619873046875,-0.8454796075820923,-1.0321155786514282,-3.6736199855804443
1763368289258644700,5.097644775390625,-0.6995218396186829,-1.9156749248504639,-3.144785165786743
1763368289268670000,5.107669921875,-0.4114131033420563,-2.470033884048462,-2.4932143688201904
1763368289278696000,5.117696044921875,-0.09779313951730728,-2.2469003200531006,-2.1324775218963623
1763368289288721000,5.127720947265625,0.029925674200057983,-1.7254737615585327,-1.9421080350875854
1763368289298745900,5.137745849609375,0.1960989385843277,-1.5439420938491821,-2.0709686279296875
1763368289308770800,5.147770751953125,0.332903116941452,-1.7527285814285278,-2.254669189453125
1763368289318795800,5.157795654296875,0.4293191432952881,-1.822581171989441,-2.3037564754486084
1763368289328822000,5.167822021484375,0.5016481876373291,-1.7641068696975708,-2.319174289703369
1763368289338846700,5.1778466796875,0.5887032151222229,-1.7430895566940308,-2.3204996585845947
1763368289348871700,5.18787158203125,0.6809127330780029,-1.712002158164978,-2.316071033477783
1763368289358896600,5.197896728515625,0.6949894428253174,-1.1733711957931519,-2.3829402923583984
1763368289368921900,5.207921875,0.7223259806632996,-0.5489975810050964,-2.539898157119751
1763368289378947800,5.21794775390625,0.7569007277488708,-0.11508211493492126,-2.9137203693389893
1763368289388972800,5.227972900390625,0.8378246426582336,-0.07842236757278442,-3.253772735595703
1763368289398997800,5.237997802734375,0.9689416289329529,0.552386462688446,-3.3516759872436523
1763368289409022700,5.248022705078125,1.1147749423980713,1.3512879610061646,-3.486994743347168
1763368289419048000,5.2580478515625,1.105589747428894,1.467828392982483,-3.493837833404541
1763368289429074000,5.268073974609375,1.0129159688949585,1.526118278503418,-3.4333255290985107
1763368289439099000,5.278098876953125,0.9457201957702637,1.7816784381866455,-3.5243701934814453
1763368289449123800,5.288123779296875,0.8786583542823792,1.9754457473754883,-3.6045613288879395
1763368289459148800,5.298148681640625,0.7482917904853821,1.8713181018829346,-3.4759902954101562
1763368289469173800,5.308173828125,0.5669606328010559,1.711179256439209,-3.1822879314422607
1763368289479198700,5.31819873046875,0.40542367100715637,1.5726168155670166,-2.826615333557129
1763368289489224700,5.328224609375,0.2461506575345993,1.469316840171814,-2.530931234359741
1763368289499249700,5.338249755859375,0.12215679883956909,1.4377440214157104,-2.3165299892425537
1763368289509274600,5.348274658203125,0.04259806126356125,1.2946702241897583,-2.105774164199829
1763368289519299800,5.3582998046875,-0.020179569721221924,0.869925320148468,-1.7304637432098389
1763368289529324800,5.36832470703125,-0.01360289379954338,0.47884780168533325,-1.3307394981384277
1763368289539350800,5.378350830078125,0.04740772768855095,0.15027391910552979,-0.9844220280647278
1763368289549375700,5.388375732421875,0.0595882274210453,0.06648954749107361,-0.754869818687439
1763368289559400700,5.398400634765625,0.1457793116569519,-0.041897647082805634,-0.5412132143974304
1763368289569426000,5.408426025390625,0.25787094235420227,-0.0820796862244606,-0.3461206555366516
1763368289579451000,5.418450927734375,0.36574816703796387,-0.02076440118253231,-0.16957518458366394
1763368289589476900,5.428476806640625,0.44386744499206543,-0.016444221138954163,0.0367196649312973
1763368289599501800,5.438501708984375,0.4796406328678131,-0.08699934929609299,0.30141258239746094
1763368289609526800,5.44852685546875,0.49680230021476746,-0.11813516169786453,0.6006618738174438
1763368289619552000,5.458552001953125,0.537287712097168,-0.086110919713974,0.8684605360031128
1763368289629576700,5.46857666015625,0.5969632863998413,0.008050736039876938,1.116716742515564
1763368289639603000,5.47860302734375,0.6636227369308472,0.1453702449798584,1.3887971639633179
1763368289649627600,5.488627685546875,0.7240290641784668,0.09558378159999847,1.5992414951324463
1763368289659652600,5.498652587890625,0.6751248836517334,-0.9800392985343933,0.8409841656684875
1763368289669677800,5.508677734375,0.382482647895813,-2.2592344284057617,-0.7766739130020142
1763368289679702800,5.518702880859375,0.37763410806655884,-0.9148887991905212,-0.4333663582801819
1763368289689728800,5.528728759765625,0.433060884475708,0.29093435406684875,0.258410781621933
1763368289699753700,5.538753662109375,0.32583534717559814,1.9561115503311157,0.9805034399032593
1763368289709778700,5.54877880859375,0.2258238047361374,0.7144888043403625,1.1139943599700928
1763368289719804000,5.558803955078125,0.08242270350456238,-1.7132967710494995,0.2912384867668152
1763368289729828900,5.568828857421875,0.2230280190706253,-0.4126269817352295,0.661929190158844
1763368289739853800,5.578853759765625,0.1917468011379242,0.7659842371940613,1.347011923789978
1763368289749879800,5.5888798828125,0.038723692297935486,-0.2118576616048813,1.3055806159973145
1763368289759904800,5.59890478515625,0.1654677838087082,-0.7310049533843994,1.600083589553833
1763368289769930000,5.608929931640625,0.1843370795249939,-0.6599432826042175,1.884300708770752
1763368289779954700,5.61895458984375,0.07912624627351761,-0.3478884696960449,1.7700356245040894
1763368289789979600,5.628979736328125,0.03003486432135105,0.18381430208683014,1.6859540939331055
1763368289800005600,5.639005615234375,0.055817726999521255,0.33104369044303894,1.701555609703064
1763368289810030600,5.649030517578125,0.17024123668670654,0.3802053928375244,1.7175370454788208
1763368289820055800,5.659055908203125,0.24225391447544098,0.4605060815811157,1.7319130897521973
1763368289830080800,5.669080810546875,0.16507764160633087,0.40369367599487305,1.8219236135482788
1763368289840105700,5.679105712890625,-0.04147154465317726,0.18959149718284607,2.008936882019043
1763368289850131700,5.689131591796875,-0.2838996350765228,-0.09620562940835953,2.1767537593841553
1763368289860156700,5.69915673828125,-0.4574083089828491,-0.3659002184867859,2.310192823410034
1763368289870182000,5.709181884765625,-0.5081273913383484,-0.562096357345581,2.447754144668579
1763368289880206800,5.719206787109375,-0.4319564700126648,-0.748965859413147,2.5778512954711914
1763368289890231800,5.729231689453125,-0.3267240524291992,-0.8908771872520447,2.685185194015503
1763368289900257800,5.7392578125,-0.22498251497745514,-0.9887691140174866,2.804596424102783
1763368289910282800,5.74928271484375,-0.19231565296649933,-1.0742523670196533,2.9480512142181396
1763368289920308000,5.759307861328125,-0.21791449189186096,-1.0756933689117432,3.0879762172698975
1763368289930333000,5.7693330078125,-0.30972057580947876,-0.9399778842926025,3.120501756668091
1763368289940357600,5.779357666015625,-0.39709755778312683,-0.7906922698020935,3.0784623622894287
1763368289950383900,5.7893837890625,-0.4501431882381439,-0.745674192905426,3.0692055225372314
1763368289960408600,5.79940869140625,-0.4920285940170288,-0.7436975836753845,3.0659844875335693
1763368289970433800,5.809433837890625,-0.6050779223442078,-0.6340720057487488,2.9883780479431152
1763368289980458800,5.819458740234375,-0.6962224841117859,-0.46387526392936707,2.845893144607544
1763368289990483700,5.829483642578125,-0.7658108472824097,-0.3038696050643921,2.6288998126983643
1763368290000509700,5.839509765625,-0.8215447068214417,-0.16173669695854187,2.3768680095672607
1763368290010534700,5.84953466796875,-0.8114652037620544,0.03165166825056076,2.1805031299591064
1763368290020560000,5.859559814453125,-0.770332932472229,0.25248363614082336,2.10368275642395
1763368290030584800,5.869584716796875,-0.744565486907959,0.4897127151489258,2.0557284355163574
1763368290040609800,5.87960986328125,-0.674697756767273,0.6187676191329956,2.025343656539917
1763368290050634800,5.889634765625,-0.584732711315155,0.7076234817504883,1.9734636545181274
1763368290060660700,5.89966064453125,-0.640030562877655,0.8526648283004761,1.88234543800354
1763368290070686000,5.90968603515625,-0.7220210433006287,1.052780270576477,1.7813316583633423
1763368290080711000,5.9197109375,-0.5834280252456665,1.0773447751998901,1.6504322290420532
1763368290090735600,5.929735595703125,-0.2882629632949829,0.8553192019462585,1.555841088294983
1763368290100760600,5.939760498046875,-0.03713564947247505,0.5959837436676025,1.5752938985824585
1763368290110786600,5.94978662109375,0.15092533826828003,0.4225805401802063,1.6153192520141602
1763368290120811800,5.959811767578125,0.3322802186012268,0.1501343697309494,1.5970274209976196
1763368290130836700,5.969836669921875,0.48567137122154236,-0.1997288316488266,1.5805981159210205
1763368290140861700,5.97986181640625,0.6060180068016052,-0.5604763627052307,1.5950862169265747
1763368290150886700,5.98988671875,0.6754753589630127,-0.9407544732093811,1.5808433294296265
1763368290160912600,5.99991259765625,0.6533921957015991,-1.3259236812591553,1.452287197113037
1763368290170937900,6.009937744140625,0.5899924635887146,-1.4988774061203003,1.2880351543426514
1763368290180962800,6.019962890625,0.4287513494491577,-1.4589451551437378,1.1097520589828491
1763368290190987800,6.02998779296875,0.2587687075138092,-1.1778018474578857,0.9087925553321838
1763368290201012700,6.0400126953125,0.15341459214687347,-0.7709428071975708,0.722366988658905
1763368290211038700,6.050038818359375,0.06854976713657379,-0.498437762260437,0.6314914226531982
1763368290221064000,6.06006396484375,0.02431625872850418,-0.35683614015579224,0.580324649810791
1763368290231089000,6.0700888671875,-0.01630520448088646,-0.37768763303756714,0.4968228042125702
1763368290241113900,6.08011376953125,-0.038770563900470734,-0.4871147871017456,0.44622141122817993
1763368290251138600,6.090138671875,0.05795677751302719,-0.6527625918388367,0.5177714824676514
1763368290261164800,6.100164794921875,0.1343492865562439,-0.7533946633338928,0.6733294129371643
1763368290271189800,6.110189697265625,0.22742410004138947,-0.7664239406585693,0.7909992933273315
1763368290281214700,6.120214599609375,0.3141326308250427,-0.7067435383796692,0.8855718970298767
1763368290291239700,6.13023974609375,0.31577685475349426,-0.5395700335502625,0.8948974609375
1763368290301264600,6.1402646484375,0.2340436577796936,-0.2098003625869751,0.7750243544578552
1763368290311290600,6.15029052734375,0.07613631337881088,0.22430767118930817,0.5496391654014587
1763368290321315800,6.16031591796875,-0.07885060459375381,0.6276023983955383,0.26710519194602966
1763368290331340800,6.1703408203125,-0.19672025740146637,0.8699974417686462,0.06466767936944962
1763368290341365800,6.18036572265625,-0.25630074739456177,0.9601491689682007,0.014437262900173664
1763368290351390700,6.190390625,-0.2731412649154663,0.9306906461715698,0.07177405804395676
1763368290361416700,6.200416748046875,-0.22182799875736237,0.7087550163269043,0.16258332133293152
1763368290371442000,6.21044189453125,-0.12504127621650696,0.268425315618515,0.264087051153183
1763368290381467000,6.220466796875,-0.05433168262243271,-0.272346556186676,0.3480413258075714
1763368290391491800,6.230491943359375,-0.042208705097436905,-0.6858153939247131,0.36323174834251404
1763368290401516800,6.240516845703125,-0.07107071578502655,-0.9063674807548523,0.30514100193977356
1763368290411542800,6.250542724609375,-0.06951969116926193,-0.9180896282196045,0.21377433836460114
1763368290421567700,6.260567626953125,-0.055510398000478745,-0.6980382204055786,0.11789014935493469
1763368290431592700,6.2705927734375,-0.03556864708662033,-0.36347833275794983,0.035891156643629074
1763368290441617700,6.28061767578125,0.020109262317419052,-0.07661382108926773,0.008858206681907177
1763368290451642600,6.290642578125,0.09530201554298401,0.09096772223711014,-0.011664912104606628
1763368290461668600,6.300668701171875,0.15074370801448822,0.18062810599803925,-0.06333929300308228
1763368290471693800,6.31069384765625,0.2029733508825302,0.3008232116699219,-0.158681258559227
1763368290481718800,6.32071875,0.2289106845855713,0.4367741346359253,-0.21371601521968842
1763368290491743700,6.33074365234375,0.25110918283462524,0.5040343999862671,-0.22407810389995575
1763368290501768700,6.340768798828125,0.25071290135383606,0.48207369446754456,-0.251797616481781
1763368290511794000,6.3507939453125,0.16884733736515045,0.3885948956012726,-0.35761964321136475
1763368290521820000,6.36081982421875,0.027643078938126564,0.25435584783554077,-0.5361880660057068
1763368290531844900,6.370844970703125,-0.13265950977802277,0.1280413269996643,-0.714451789855957
1763368290541869800,6.380869873046875,-0.27314338088035583,0.08016461133956909,-0.8349670171737671
1763368290551894800,6.390894775390625,-0.36191320419311523,0.15478399395942688,-0.8978407979011536
1763368290561919700,6.400919677734375,-0.4027778208255768,0.3059133291244507,-0.93815678358078
1763368290571945700,6.41094580078125,-0.4337591528892517,0.4443931579589844,-1.023337483406067
1763368290581970700,6.420970703125,-0.4713997542858124,0.5090547204017639,-1.2057852745056152
1763368290591995600,6.43099560546875,-0.512409508228302,0.4988366961479187,-1.5024763345718384
1763368290602020900,6.441020751953125,-0.5598284006118774,0.47947633266448975,-1.9028363227844238
1763368290612045800,6.4510458984375,-0.5993409156799316,0.4640049636363983,-2.3647372722625732
1763368290622071800,6.46107177734375,-0.6444770097732544,0.42530176043510437,-2.8575332164764404
1763368290632096800,6.4710966796875,-0.6865229606628418,0.27860206365585327,-3.370954990386963
1763368290642121700,6.481121826171875,-0.6981889605522156,-0.08832134306430817,-3.854740619659424
1763368290652147000,6.49114697265625,-0.777213454246521,-0.5834354758262634,-4.143924236297607
1763368290662172000,6.501171875,-0.9064313769340515,-1.1314599514007568,-4.0762553215026855
1763368290672198000,6.511197998046875,-0.8154202103614807,-1.7269089221954346,-3.6231184005737305
1763368290682222800,6.521222900390625,-0.46963274478912354,-2.5318477153778076,-2.9045705795288086
1763368290692247800,6.531247802734375,0.041610293090343475,-3.064558267593384,-2.2419540882110596
1763368290702272800,6.541272705078125,0.37372538447380066,-3.0340449810028076,-1.7535579204559326
1763368290712297700,6.551297607421875,0.4572506546974182,-2.7490434646606445,-1.6376557350158691
1763368290722324000,6.561323974609375,0.5908252000808716,-2.342651605606079,-1.8839632272720337
1763368290732348700,6.5713486328125,0.8311174511909485,-1.7131012678146362,-2.2196767330169678
1763368290742373600,6.58137353515625,0.9912477135658264,-1.4304357767105103,-2.386666774749756
1763368290752398800,6.59139892578125,1.106034517288208,-1.3304497003555298,-2.39901065826416
1763368290762423800,6.601423828125,1.1188647747039795,-1.0164670944213867,-2.362483501434326
1763368290772449800,6.61144970703125,1.0940377712249756,-0.4398823082447052,-2.4298553466796875
1763368290782474800,6.621474853515625,1.157070279121399,0.10289681702852249,-2.5332746505737305
1763368290792499700,6.631499755859375,1.2141332626342773,0.481141597032547,-2.75058913230896
1763368290802525000,6.64152490234375,1.2240183353424072,0.7423729300498962,-3.00740909576416
1763368290812550000,6.6515498046875,1.278706669807434,1.1045135259628296,-3.189312696456909
1763368290822575600,6.66157568359375,1.324802041053772,1.4832134246826172,-3.234794855117798
1763368290832600600,6.6716005859375,1.2907862663269043,1.860926628112793,-3.2247531414031982
1763368290842625500,6.68162548828125,1.2736282348632812,2.0230112075805664,-3.1929965019226074
1763368290852650800,6.691650634765625,1.1683170795440674,1.8758944272994995,-3.0954861640930176
1763368290862675700,6.70167578125,1.0074021816253662,1.7439897060394287,-2.9952635765075684
1763368290872701700,6.71170166015625,0.8616337776184082,1.8267908096313477,-2.983849287033081
1763368290882726700,6.7217265625,0.7247137427330017,1.857103705406189,-3.0045976638793945
1763368290892751600,6.731751708984375,0.5811776518821716,1.8059943914413452,-2.9356164932250977
1763368290902776800,6.74177685546875,0.4510848820209503,1.4668049812316895,-2.7015037536621094
1763368290912801800,6.7518017578125,0.2921735346317291,1.0753458738327026,-2.291417360305786
1763368290922826800,6.76182666015625,0.21322040259838104,1.0675935745239258,-2.048938035964966
1763368290932852700,6.771852783203125,0.19139792025089264,1.2597780227661133,-1.9294761419296265
1763368290942877700,6.781877685546875,0.18483562767505646,1.3331118822097778,-1.8202003240585327
1763368290952902700,6.791902587890625,0.20627300441265106,1.1664628982543945,-1.6150153875350952
1763368290962927600,6.801927734375,0.22104769945144653,0.8791390061378479,-1.3163741827011108
1763368290972953600,6.81195361328125,0.20986294746398926,0.6535328030586243,-1.0338066816329956
1763368290982978600,6.821978515625,0.18931852281093597,0.5177451372146606,-0.8325979113578796
1763368290993003500,6.83200341796875,0.15644393861293793,0.48566576838493347,-0.7044178247451782
1763368291003028700,6.84202880859375,0.16784359514713287,0.2757021486759186,-0.46242889761924744
1763368291013053700,6.8520537109375,0.1889861673116684,0.07264251261949539,-0.1350369155406952
1763368291023078700,6.86207861328125,0.23256880044937134,-0.06553453207015991,0.16342461109161377
1763368291033104600,6.872104736328125,0.24889077246189117,-0.15043237805366516,0.4088982939720154
1763368291043129600,6.882129638671875,0.2540788948535919,-0.18599969148635864,0.6436002850532532
1763368291053154800,6.89215478515625,0.2711295187473297,-0.20226629078388214,0.8922545909881592
1763368291063179800,6.9021796875,0.28203460574150085,-0.18168404698371887,1.17410147190094
1763368291073204700,6.912204833984375,0.28513720631599426,-0.17433558404445648,1.5159990787506104
1763368291083230700,6.922230712890625,0.30737966299057007,-0.28844350576400757,1.8499621152877808
1763368291093255700,6.932255615234375,0.32619622349739075,-1.012559413909912,1.5368354320526123
1763368291103280600,6.94228076171875,0.15217915177345276,-2.383418321609497,-0.1680297553539276
1763368291113305600,6.9523056640625,0.1277552992105484,-1.377346158027649,-0.4016358554363251
1763368291123330600,6.96233056640625,0.18756189942359924,0.044984251260757446,0.570162832736969
1763368291133356500,6.9723564453125,0.2682271897792816,1.4963334798812866,1.6399825811386108
1763368291143381500,6.982381591796875,0.3444095849990845,0.5464265942573547,1.6996067762374878
1763368291153406700,6.99240673828125,0.1854097992181778,-1.801201581954956,0.5792505741119385
1763368291163431700,7.002431640625,0.2794979512691498,-0.028481176123023033,0.5880600810050964
1763368291173456600,7.01245654296875,0.31967946887016296,1.7842644453048706,1.1436042785644531
1763368291183482600,7.022482666015625,0.30648988485336304,0.5890076160430908,0.994552731513977
1763368291193507600,7.032507568359375,0.32918083667755127,-0.22650611400604248,1.3780665397644043
1763368291203532800,7.04253271484375,0.2077324241399765,-0.5335912108421326,1.9047963619232178
1763368291213557800,7.052557861328125,0.06409989297389984,-0.7229877710342407,1.960068941116333
1763368291223582700,7.062582763671875,0.021862687543034554,-0.23988370597362518,1.8696777820587158
1763368291233608700,7.072608642578125,0.07846098393201828,0.010408432222902775,1.7595657110214233
1763368291243633700,7.082633544921875,0.06746719032526016,-0.05330929532647133,1.7596964836120605
1763368291253659000,7.092658935546875,-0.01555099617689848,-0.12503966689109802,1.8043302297592163
1763368291263683600,7.10268359375,-0.1263371706008911,-0.0663534551858902,1.8247801065444946
1763368291273708500,7.11270849609375,-0.25960174202919006,-0.061411160975694656,1.8611650466918945
1763368291283734500,7.122734619140625,-0.40394559502601624,-0.17594173550605774,1.9693812131881714
1763368291293759500,7.132759521484375,-0.49761298298835754,-0.3504807949066162,2.128087043762207
1763368291303784700,7.14278466796875,-0.47957858443260193,-0.583388090133667,2.2893102169036865
1763368291313809700,7.1528095703125,-0.3694438338279724,-0.8040093779563904,2.399678945541382
1763368291323834600,7.162834716796875,-0.2643144726753235,-0.9153391122817993,2.4823880195617676
1763368291333860600,7.172860595703125,-0.2079302966594696,-0.9276404976844788,2.5224850177764893
1763368291343885600,7.182885498046875,-0.20402370393276215,-0.8956453204154968,2.5687472820281982
1763368291353910800,7.192910888671875,-0.2470281571149826,-0.919922947883606,2.641995906829834
1763368291363935700,7.202935791015625,-0.3112441599369049,-0.9400364756584167,2.7283904552459717
1763368291373960700,7.212960693359375,-0.4025722146034241,-0.9828433394432068,2.7712044715881348
1763368291383986700,7.222986572265625,-0.5223990082740784,-0.895781397819519,2.76818585395813
1763368291394011600,7.23301171875,-0.5906944274902344,-0.7048356533050537,2.7276623249053955
1763368291404036900,7.243036865234375,-0.5669041872024536,-0.4219552278518677,2.672579288482666
1763368291414061600,7.2530615234375,-0.5092107653617859,-0.17134298384189606,2.5761518478393555
1763368291424086500,7.26308642578125,-0.464893102645874,-0.00412363838404417,2.426170587539673
1763368291434112500,7.273112548828125,-0.4826691746711731,0.14495132863521576,2.248901844024658
1763368291444137500,7.283137451171875,-0.5172638893127441,0.2969701588153839,2.067603349685669
1763368291454162700,7.29316259765625,-0.5716701745986938,0.36732926964759827,1.8927721977233887
1763368291464187600,7.303187744140625,-0.6013463139533997,0.4173343777656555,1.7296568155288696
1763368291474212600,7.313212646484375,-0.5751173496246338,0.5431746244430542,1.58818519115448
1763368291484238600,7.323238525390625,-0.5502381324768066,0.8182647824287415,1.4555131196975708
1763368291494263600,7.333263671875,-0.5674751400947571,1.1716880798339844,1.3150521516799927
1763368291504288800,7.343288818359375,-0.5973638296127319,1.5168582201004028,1.1518133878707886
1763368291514313700,7.353313720703125,-0.5747218728065491,1.6875892877578735,1.0598392486572266
1763368291524338700,7.363338623046875,-0.49899062514305115,1.5428909063339233,1.108286738395691
1763368291534363600,7.37336376953125,-0.3896771967411041,1.1937766075134277,1.1991170644760132
1763368291544389600,7.3833896484375,-0.27236708998680115,0.7200676202774048,1.2996028661727905
1763368291554414800,7.393414794921875,-0.17275872826576233,0.17662669718265533,1.3893892765045166
1763368291564439800,7.403439697265625,-0.04765114188194275,-0.3263179361820221,1.4351732730865479
1763368291574464500,7.413464599609375,0.0747450739145279,-0.7077646255493164,1.4132602214813232
1763368291584489500,7.423489501953125,0.1682412028312683,-0.944124162197113,1.3181911706924438
1763368291594515500,7.433515380859375,0.25822141766548157,-0.9986904859542847,1.2229804992675781
1763368291604540700,7.443540771484375,0.3267086148262024,-0.945167601108551,1.082654595375061
1763368291614565600,7.453565673828125,0.33942121267318726,-0.8496836423873901,0.8869498372077942
1763368291624590600,7.463590576171875,0.3855738043785095,-0.7479823231697083,0.7041952013969421
1763368291634615600,7.473615478515625,0.39636147022247314,-0.6723248362541199,0.6067184209823608
1763368291644641500,7.4836416015625,0.3996856212615967,-0.547749936580658,0.5945349931716919
1763368291654666800,7.493666748046875,0.4073142409324646,-0.49362435936927795,0.6097642779350281
1763368291664691700,7.503691650390625,0.4088764488697052,-0.4687693417072296,0.5904505252838135
1763368291674716700,7.513716552734375,0.4064908027648926,-0.43634721636772156,0.5142974257469177
1763368291684741600,7.52374169921875,0.40590834617614746,-0.4495932459831238,0.4112703800201416
1763368291694767600,7.533767578125,0.3800482749938965,-0.5324351191520691,0.3129832148551941
1763368291704792800,7.543792724609375,0.35408589243888855,-0.604912281036377,0.2680138647556305
1763368291714817800,7.55381787109375,0.33168765902519226,-0.5520381331443787,0.27662599086761475
1763368291724842500,7.563842529296875,0.28972235321998596,-0.34786075353622437,0.31624558568000793
1763368291734867500,7.573867431640625,0.24011433124542236,-0.08955731242895126,0.3558337390422821
1763368291744893400,7.5838935546875,0.18761196732521057,0.08803558349609375,0.38458868861198425
1763368291754918700,7.593918701171875,0.1316903829574585,0.18759307265281677,0.39815935492515564
1763368291764943600,7.603943603515625,0.08367785066366196,0.2868541479110718,0.3737424314022064
1763368291774968600,7.613968505859375,0.04632541909813881,0.3913879990577698,0.30059924721717834
1763368291784993500,7.62399365234375,0.020303407683968544,0.41016727685928345,0.22287169098854065
1763368291795019500,7.63401953125,0.02443263866007328,0.37743544578552246,0.21065737307071686
1763368291805044700,7.644044677734375,0.06328203529119492,0.4599342942237854,0.260801762342453
1763368291815070200,7.6540703125,0.07834114134311676,0.610059380531311,0.3497753143310547
1763368291825095000,7.664094970703125,0.05037102848291397,0.6615347862243652,0.42034775018692017
1763368291835119900,7.674119873046875,0.009244098328053951,0.5896385312080383,0.4420378804206848
1763368291845145900,7.684145751953125,-0.028201011940836906,0.4211730659008026,0.41363659501075745
1763368291855171000,7.694171142578125,-0.06292037665843964,0.17255046963691711,0.37049391865730286
1763368291865196000,7.704196044921875,-0.092145636677742,-0.11312389373779297,0.3053146302700043
1763368291875221000,7.714220947265625,-0.1293068528175354,-0.334992915391922,0.23522663116455078
1763368291885246000,7.724245849609375,-0.1488286256790161,-0.43148934841156006,0.16486512124538422
1763368291895272000,7.73427197265625,-0.15908552706241608,-0.4428469240665436,0.1119060292840004
1763368291905297200,7.744297119140625,-0.14741475880146027,-0.4121635854244232,0.11188392341136932
1763368291915322000,7.754322021484375,-0.10322252660989761,-0.31399601697921753,0.1421973556280136
1763368291925347000,7.76434716796875,-0.023017967119812965,-0.14855937659740448,0.16752028465270996
1763368291935372000,7.7743720703125,0.06356459110975266,0.010102967731654644,0.16954775154590607
1763368291945398000,7.78439794921875,0.16683664917945862,0.1016366109251976,0.18572644889354706
1763368291955423200,7.79442333984375,0.2659536600112915,0.109359510242939,0.22215449810028076
1763368291965448200,7.8044482421875,0.34821203351020813,0.05582971125841141,0.24855974316596985
1763368291975473000,7.814472900390625,0.3753392696380615,-0.013427125290036201,0.22179977595806122
1763368291985497900,7.824497802734375,0.3206983804702759,-0.1436711549758911,0.19719216227531433
1763368291995523800,7.83452392578125,0.2623189687728882,-0.3192472457885742,0.17483465373516083
1763368292005549000,7.844549072265625,0.1788744032382965,-0.4942517876625061,0.17874684929847717
1763368292015574000,7.854573974609375,0.04797178506851196,-0.636512815952301,0.2130259871482849
1763368292025599000,7.864598876953125,-0.10947909206151962,-0.6757856607437134,0.23221352696418762
1763368292035624000,7.8746240234375,-0.27699804306030273,-0.5198860764503479,0.18685084581375122
1763368292045650000,7.88464990234375,-0.4256943166255951,-0.1571938842535019,0.09602054208517075
1763368292055675100,7.894675048828125,-0.5695622563362122,0.3093397319316864,-0.008519718423485756
1763368292065700000,7.9047001953125,-0.690686047077179,0.713105320930481,-0.10592696815729141
1763368292075725000,7.91472509765625,-0.7423529624938965,0.9717243313789368,-0.21122941374778748
1763368292085750000,7.92475,-0.7422655820846558,1.01674485206604,-0.32671472430229187
1763368292095776000,7.93477587890625,-0.733655571937561,0.8155975937843323,-0.4567808508872986
1763368292105801200,7.94480126953125,-0.7324651479721069,0.44327276945114136,-0.6200566291809082
1763368292115826200,7.954826171875,-0.723559558391571,0.06655079871416092,-0.7686482071876526
1763368292125851100,7.96485107421875,-0.695842444896698,-0.1662725955247879,-0.8775309920310974
1763368292135875800,7.974875732421875,-0.6410582661628723,-0.23127716779708862,-0.9371945858001709
1763368292145901800,7.98490185546875,-0.574581503868103,-0.1875011920928955,-0.966170072555542
1763368292155927000,7.994927001953125,-0.5060522556304932,-0.06551375985145569,-0.9603555798530579
1763368292165952000,8.004951904296876,-0.4282834231853485,0.09511639177799225,-0.9333705902099609
1763368292175977000,8.01497705078125,-0.34806182980537415,0.23524287343025208,-0.9095563292503357
1763368292186002000,8.025001953125,-0.291960209608078,0.32700929045677185,-0.903032124042511
1763368292196028000,8.03502783203125,-0.25988084077835083,0.3731165826320648,-0.9525623917579651
1763368292206053000,8.04505322265625,-0.26340633630752563,0.3458724617958069,-1.0869979858398438
1763368292216078000,8.055078125,-0.2659565806388855,0.18407610058784485,-1.2803226709365845
1763368292226103000,8.06510302734375,-0.2945954203605652,-0.13024908304214478,-1.4867885112762451
1763368292236128000,8.0751279296875,-0.3759094476699829,-0.5274020433425903,-1.6778875589370728
1763368292246153200,8.0851533203125,-0.4842665493488312,-0.9380161762237549,-1.808827519416809
1763368292256179200,8.09517919921875,-0.5488942861557007,-1.3304897546768188,-1.9039580821990967
1763368292266204200,8.1052041015625,-0.5588670372962952,-1.5144566297531128,-2.010815143585205
1763368292276229000,8.11522900390625,-0.4745017886161804,-1.4709792137145996,-2.053805112838745
1763368292286253800,8.12525390625,-0.3754223585128784,-1.2318192720413208,-1.991599678993225
1763368292296279000,8.135279052734376,-0.3405384123325348,-0.9139105677604675,-1.9287238121032715
1763368292306305000,8.145304931640625,-0.3007108271121979,-0.5291267037391663,-1.9696496725082397
1763368292316330000,8.155330078125,-0.19926249980926514,-0.2025216817855835,-2.0622196197509766
1763368292326355000,8.16535498046875,-0.05860792100429535,-0.04264359921216965,-2.1421120166778564
1763368292336380000,8.1753798828125,0.01438133604824543,-0.13117879629135132,-2.155668258666992
1763368292346405000,8.185405029296875,0.028443625196814537,-0.009811352007091045,-2.224097967147827
1763368292356431000,8.19543115234375,0.023682426661252975,0.04249553009867668,-2.1837596893310547
1763368292366456000,8.2054560546875,0.03693085163831711,-0.04008669778704643,-1.986953616142273
1763368292376481000,8.21548095703125,0.024157267063856125,0.021142570301890373,-1.7683309316635132
1763368292386506000,8.225506103515626,0.09190648794174194,0.07517704367637634,-1.5609465837478638
1763368292396531200,8.23553125,0.14644776284694672,0.025424933061003685,-1.3721513748168945
1763368292406557200,8.24555712890625,0.22213825583457947,-0.11205410212278366,-1.2013109922409058
1763368292416582100,8.25558203125,0.32395222783088684,-0.2747359573841095,-1.014892816543579
1763368292426607000,8.265607177734376,0.451999694108963,-0.3351476490497589,-0.8441711664199829
1763368292436631800,8.2756318359375,0.5684639811515808,-0.293153315782547,-0.7384482026100159
1763368292446657000,8.285656982421875,0.6817237138748169,-0.2645253837108612,-0.6722865104675293
1763368292456683000,8.29568310546875,0.7582179307937622,-0.2576190233230591,-0.6026323437690735
1763368292466708000,8.3057080078125,0.7780970931053162,-0.23063427209854126,-0.5413460731506348
1763368292476733000,8.31573291015625,0.8093173503875732,-0.06413450837135315,-0.4734972417354584
1763368292486758000,8.3257578125,0.9138733148574829,0.11302535235881805,-0.40459808707237244
1763368292496783000,8.335783203125,0.98820960521698,0.21961252391338348,-0.347621351480484
1763368292506809000,8.34580908203125,1.0266366004943848,0.35944685339927673,-0.34638512134552
1763368292516834000,8.355833984375,1.027419090270996,0.5199470520019531,-0.3467997610569
1763368292526859000,8.36585888671875,0.9918104410171509,0.6948400139808655,-0.32646891474723816
1763368292536884000,8.375884033203125,0.935683012008667,0.8495808839797974,-0.31062257289886475
1763368292546909200,8.3859091796875,0.858877956867218,0.9481026530265808,-0.28051289916038513
1763368292556935200,8.39593505859375,0.7763562202453613,0.999418318271637,-0.22680199146270752
1763368292566960000,8.405960205078125,0.696514904499054,1.0368854999542236,-0.1568966656923294
1763368292576985000,8.415985107421875,0.6010421514511108,1.0806958675384521,-0.05798793584108353
1763368292587010000,8.426010009765625,0.5301754474639893,1.000752329826355,0.07597652077674866
1763368292597035000,8.436034912109376,0.45439252257347107,1.041572093963623,0.13146162033081055
1763368292607061200,8.446061279296876,0.3364355266094208,1.0734376907348633,0.1775047481060028
1763368292617086000,8.4560859375,0.23634542524814606,1.1574969291687012,0.18405266106128693
1763368292627111000,8.46611083984375,0.15802079439163208,1.2063614130020142,0.20469987392425537
1763368292637136000,8.476135986328124,0.09825519472360611,1.2164437770843506,0.24913498759269714
1763368292647161000,8.4861611328125,0.055620383471250534,1.2268056869506836,0.30042320489883423
1763368292657187000,8.49618701171875,0.020733507350087166,1.2445130348205566,0.34795743227005005
1763368292667212000,8.5062119140625,-0.0075487298890948296,1.2600080966949463,0.3804996609687805
1763368292677237000,8.516237060546874,-0.01312139444053173,1.2316243648529053,0.39682644605636597
1763368292687262000,8.526261962890626,0.007513043470680714,1.1421080827713013,0.3999101221561432
1763368292697287200,8.536287109375,0.040466200560331345,1.0105109214782715,0.4019186794757843
1763368292707313200,8.546313232421875,0.09758275002241135,0.9094465970993042,0.3836840093135834
1763368292717338000,8.556338134765625,0.16284909844398499,0.8451621532440186,0.3512195348739624
1763368292727363000,8.566363037109374,0.2422107756137848,0.7953959107398987,0.3108481466770172
1763368292737388000,8.576387939453125,0.32365289330482483,0.7626107931137085,0.2626188397407532
1763368292747413000,8.5864130859375,0.3781145513057709,0.7882751822471619,0.20580215752124786
1763368292757439200,8.596439208984375,0.38142964243888855,0.9182374477386475,0.16043974459171295
1763368292767464000,8.6064638671875,0.32364916801452637,1.1454061269760132,0.1466139405965805
1763368292777489000,8.616489013671876,0.2465759515762329,1.3440515995025635,0.18907006084918976
1763368292787513900,8.626513916015625,0.20612306892871857,1.4588545560836792,0.26690226793289185
1763368292797539000,8.6365390625,0.2141924500465393,1.500610589981079,0.2986500859260559
1763368292807565000,8.64656494140625,0.25543737411499023,1.4186125993728638,0.297970175743103
1763368292817590500,8.656590576171874,0.3175031244754791,1.1726106405258179,0.311455100774765
1763368292827615500,8.666615478515626,0.40706923604011536,0.8265064358711243,0.33159977197647095
1763368292837640400,8.676640380859375,0.4628683030605316,0.5241766571998596,0.2759479582309723
1763368292847665700,8.686665771484375,0.44744646549224854,0.5111221075057983,0.24957361817359924
1763368292857691600,8.696691650390624,0.39504000544548035,0.7844684720039368,0.203810915350914
1763368292867716600,8.706716552734376,0.3535782992839813,0.9816150665283203,-0.008827580139040947
1763368292877741600,8.716741455078125,0.2574014365673065,1.2648206949234009,-0.38490134477615356
1763368292887766500,8.7267666015625,-0.006453105714172125,1.852713704109192,-0.6398292183876038
1763368292897791700,8.736791748046874,-0.3279760181903839,2.0948069095611572,-0.6416170001029968
1763368292907816700,8.746816650390626,-0.4472099840641022,1.8399180173873901,-0.39535319805145264
1763368292917842700,8.7568427734375,-0.42104655504226685,1.6233460903167725,0.08579613268375397
1763368292927867600,8.76686767578125,-0.34037622809410095,1.4298259019851685,0.5752518177032471
1763368292937892400,8.776892333984375,-0.2942289710044861,0.9717592597007751,0.9696769118309021
1763368292947917600,8.78691748046875,-0.26474350690841675,0.3292604386806488,1.3139985799789429
1763368292957942500,8.796942626953125,-0.2077561318874359,-0.15958380699157715,1.6564971208572388
1763368292967968500,8.806968505859375,-0.20943312346935272,-0.37324416637420654,1.8895615339279175
1763368292977993500,8.816993408203125,-0.24211755394935608,-0.39364928007125854,1.9129976034164429
1763368292988018400,8.827018310546874,-0.24929504096508026,-0.2769621014595032,1.7635109424591064
1763368292998043600,8.837043701171876,-0.23749005794525146,0.005940447095781565,1.5555651187896729
1763368293008068600,8.847068603515625,-0.18516506254673004,0.34216052293777466,1.3328063488006592
1763368293018094600,8.857094482421875,-0.12064678966999054,0.6280996203422546,1.1200038194656372
1763368293028119600,8.86711962890625,-0.08103999495506287,0.7957509160041809,0.9300775527954102
1763368293038144500,8.87714453125,-0.0789177194237709,0.8921176791191101,0.7790499925613403
1763368293048169700,8.887169677734375,-0.07883649319410324,0.9486597776412964,0.6482248306274414
1763368293058194700,8.897194580078125,-0.06353317201137543,1.018560528755188,0.5275338292121887
1763368293068220700,8.907220703125,-0.04036100581288338,1.118208885192871,0.4347189664840698
1763368293078245600,8.91724560546875,0.008006527088582516,1.1657623052597046,0.3813910186290741
1763368293088270300,8.927270263671875,0.04574192315340042,1.1272470951080322,0.3779590129852295
1763368293098295600,8.937295654296875,0.07635176181793213,1.0252152681350708,0.4094562232494354
1763368293108320500,8.947320556640625,0.09980036318302155,0.8683095574378967,0.4555099904537201
1763368293118346500,8.957346435546874,0.095759816467762,0.7366556525230408,0.4853328764438629
1763368293128371500,8.967371337890626,0.07779546082019806,0.6804720163345337,0.48253390192985535
1763368293138396400,8.977396484375,0.03814259171485901,0.6715240478515625,0.4406604766845703
1763368293148421600,8.987421630859375,0.0009725864510983229,0.7085878252983093,0.37594911456108093
1763368293158446600,8.997446533203124,-0.024208134040236473,0.7656585574150085,0.30266720056533813
1763368293168472600,9.00747265625,-0.035173967480659485,0.8173297047615051,0.24221530556678772
1763368293178497500,9.01749755859375,-0.027513382956385612,0.8446534872055054,0.21850650012493134
1763368293188522500,9.0275224609375,0.005884787067770958,0.8020796775817871,0.2325562834739685
1763368293198547700,9.037547607421875,0.044608745723962784,0.7020130157470703,0.24317003786563873
1763368293208572700,9.04757275390625,0.107789047062397,0.5933131575584412,0.2440105378627777
1763368293218598700,9.0575986328125,0.18075114488601685,0.5135146975517273,0.2370239943265915
1763368293228623600,9.06762353515625,0.2437753826379776,0.45979583263397217,0.2314249724149704
1763368293238648600,9.077648681640625,0.27750006318092346,0.4524087607860565,0.23046010732650757
1763368293248673500,9.087673583984374,0.2664428651332855,0.5255564451217651,0.24407072365283966
1763368293258698500,9.097698486328126,0.24801219999790192,0.6227567791938782,0.2642183303833008
1763368293268724500,9.107724365234375,0.2372913807630539,0.6919859051704407,0.27622225880622864
1763368293278749400,9.11774951171875,0.22794021666049957,0.7336814403533936,0.29777151346206665
1763368293288774400,9.1277744140625,0.2050604671239853,0.7908264994621277,0.3279794752597809
1763368293298799600,9.137799560546876,0.1983112245798111,0.8483289480209351,0.36711010336875916
1763368293308824600,9.147824462890625,0.19114385545253754,0.8836647868156433,0.4282698631286621
1763368293318850600,9.1578505859375,0.17025402188301086,0.8876835107803345,0.5047979354858398
1763368293328875500,9.16787548828125,0.15995104610919952,0.8960293531417847,0.5561646819114685
1763368293338900500,9.177900390625,0.14976099133491516,0.9016345143318176,0.5967957377433777
1763368293348925700,9.18792578125,0.1379389613866806,0.90423983335495,0.6215721964836121
1763368293358950700,9.19795068359375,0.12461409717798233,0.9105310440063477,0.6197482347488403
1763368293368976600,9.2079765625,0.08701293170452118,0.9177005290985107,0.6136175990104675
1763368293379001600,9.218001708984374,0.051535364240407944,0.9058297872543335,0.6041098833084106
1763368293389026600,9.228026611328126,0.029453495517373085,0.8805065751075745,0.5942074060440063
1763368293399051500,9.238051513671875,0.01883121207356453,0.8329814076423645,0.5885950922966003
1763368293409076500,9.248076416015625,0.010469951666891575,0.771304190158844,0.5900891423225403
1763368293419101400,9.258101318359374,0.006688262801617384,0.7087787389755249,0.6165281534194946
1763368293429127400,9.26812744140625,0.007693339604884386,0.6586596369743347,0.6677151918411255
1763368293439152400,9.27815234375,0.027292607352137566,0.6194493770599365,0.7223608493804932
1763368293449177600,9.288177490234375,0.0703793540596962,0.5827893614768982,0.7802039384841919
1763368293459202600,9.29820263671875,0.0984802320599556,0.5211494565010071,0.8260896801948547
1763368293469227500,9.3082275390625,0.10308830440044403,0.4576171040534973,0.8743693232536316
1763368293479253500,9.31825341796875,0.11351004987955093,0.3630999028682709,0.8789100050926208
1763368293489278500,9.328278564453125,0.10594906657934189,0.26779523491859436,0.8543985486030579
1763368293499303700,9.3383037109375,0.0775294154882431,0.17517846822738647,0.8117048740386963
1763368293509328600,9.34832861328125,0.06780195236206055,0.07172851264476776,0.7442398071289062
1763368293519353600,9.358353515625,0.0473635196685791,-0.014314756728708744,0.6617438793182373
1763368293529379600,9.368379638671875,0.005152417812496424,-0.08767392486333847,0.5676026940345764
1763368293539404500,9.378404541015625,-0.034500718116760254,-0.16441211104393005,0.4564493000507355
1763368293549429500,9.388429443359374,-0.05422195792198181,-0.26711586117744446,0.3286873400211334
1763368293559454500,9.398454345703126,-0.0501803457736969,-0.341011643409729,0.21943701803684235
1763368293569479400,9.4084794921875,-0.03597957268357277,-0.2987331748008728,0.18352241814136505
1763368293579505400,9.41850537109375,-0.007464574184268713,-0.15148432552814484,0.21822820603847504
1763368293589530400,9.4285302734375,0.023187344893813133,0.038531944155693054,0.31700724363327026
1763368293599555600,9.4385556640625,0.026876887306571007,0.16363047063350677,0.44061174988746643
1763368293609580500,9.44858056640625,0.020900487899780273,0.17542508244514465,0.5324252843856812
1763368293619605500,9.45860546875,0.036132436245679855,0.1294195055961609,0.5645789504051208
1763368293629631500,9.468631591796875,0.044083572924137115,0.0619182288646698,0.5445256233215332
1763368293639656400,9.478656494140624,0.04709960147738457,-0.05200541019439697,0.47648584842681885
1763368293649681700,9.488681640625,0.052927128970623016,-0.1999693065881729,0.3672618865966797
1763368293659706600,9.49870654296875,0.02743002586066723,-0.3062925636768341,0.27910274267196655
1763368293669731600,9.508731689453125,-0.004232029430568218,-0.3456761837005615,0.2155756950378418
1763368293679757600,9.518757568359375,-0.03151584789156914,-0.3169177770614624,0.20240716636180878
1763368293689782500,9.528782470703124,-0.0774678960442543,-0.2519552707672119,0.20324845612049103
1763368293699807700,9.538807861328126,-0.06553906202316284,-0.23526205122470856,0.1458301693201065
1763368293709832400,9.54883251953125,-0.0023289343807846308,-0.2601359784603119,0.03987870737910271
1763368293719857400,9.558857421875,0.10213541984558105,-0.2973054349422455,-0.08014517277479172
1763368293729883400,9.56888330078125,0.23106837272644043,-0.29137006402015686,-0.19820256531238556
1763368293739908400,9.578908447265626,0.4203781187534332,-0.2860320210456848,-0.33080747723579407
1763368293749933600,9.58893359375,0.6193042397499084,-0.27965933084487915,-0.4162571430206299
1763368293759958500,9.59895849609375,0.744193434715271,-0.20205163955688477,-0.4321564733982086
1763368293769983500,9.6089833984375,0.7604240775108337,0.03964461386203766,-0.354571670293808
1763368293780009500,9.619009521484376,0.6598204970359802,0.41937410831451416,-0.22871972620487213
1763368293790034400,9.629034423828125,0.5508618354797363,0.8191425204277039,-0.10351680219173431
1763368293800059600,9.6390595703125,0.6083768010139465,0.9697197675704956,-0.02358601987361908
1763368293810084600,9.649084716796875,0.5820839405059814,1.1303750276565552,0.15190111100673676
1763368293820108300,9.6591083984375,0.42203858494758606,1.4982858896255493,0.2877662777900696
1763368293830134300,9.66913427734375,0.19616498053073883,1.9596996307373047,0.1994161754846573
1763368293840159500,9.679159423828125,-0.05650215968489647,2.355483055114746,-0.15287822484970093
1763368293850184400,9.689184326171874,-0.3331105709075928,2.656125783920288,-0.8239713907241821
1763368293860209400,9.69920947265625,-0.6072167158126831,2.3095343112945557,-1.9289896488189697
1763368293870234400,9.709234375,-0.839458167552948,1.4652328491210938,-2.533428907394409
1763368293880260400,9.71926025390625,-1.0457149744033813,0.7164113521575928,-2.6565423011779785
1763368293890285600,9.72928564453125,-1.016226887702942,0.28069478273391724,-2.6941235065460205
1763368293900310500,9.739310546875,-0.8772854804992676,0.2023741453886032,-2.7505927085876465
1763368293910335200,9.749335205078125,-0.7318292260169983,0.3365846872329712,-2.816471576690674
1763368293920360400,9.7593603515625,-0.6539983153343201,0.4868391454219818,-2.835862159729004
1763368293930385400,9.769385498046875,-0.6156890392303467,0.5531502962112427,-2.7468249797821045
1763368293940411400,9.779411376953124,-0.5531558394432068,0.5724456906318665,-2.573737382888794
1763368293950436400,9.789436279296876,-0.4791136085987091,0.6760953664779663,-2.370187520980835
1763368293960461300,9.79946142578125,-0.4126940965652466,0.8433032631874084,-2.1593456268310547
1763368293970486500,9.809486572265625,-0.35095056891441345,1.0322608947753906,-2.0038416385650635
1763368293980511500,9.819511474609374,-0.32297325134277344,1.2349578142166138,-1.8998773097991943
1763368293990537500,9.829537353515626,-0.31108465790748596,1.4079536199569702,-1.844774603843689
1763368294000562400,9.8395625,-0.2860000729560852,1.5597617626190186,-1.8116384744644165
1763368294010587400,9.84958740234375,-0.23554088175296783,1.6589045524597168,-1.7988513708114624
1763368294020612400,9.8596123046875,-0.14750663936138153,1.6251604557037354,-1.8213883638381958
1763368294030637600,9.869637451171876,-0.015029549598693848,1.4507452249526978,-1.8057667016983032
1763368294040663600,9.87966357421875,0.07524175941944122,1.1979066133499146,-1.710646152496338
1763368294050688500,9.8896884765625,0.12184441089630127,0.9699059724807739,-1.5913209915161133
1763368294060713200,9.899713134765625,0.1745252013206482,0.8099993467330933,-1.5131328105926514
1763368294070738400,9.909738525390624,0.2387060523033142,0.7312664985656738,-1.451375126838684
1763368294080763400,9.919763427734376,0.33551275730133057,0.7225651144981384,-1.3703538179397583
1763368294090789400,9.929789306640625,0.4171961545944214,0.801054060459137,-1.3051323890686035
1763368294100814300,9.939814453125,0.5057126879692078,0.9903499484062195,-1.2436951398849487
1763368294110839300,9.94983935546875,0.6280897855758667,1.2517818212509155,-1.1933315992355347
1763368294120864500,9.959864501953126,0.741868257522583,1.3510724306106567,-1.124942421913147
1763368294130889500,9.969889404296875,0.8044325709342957,1.2792377471923828,-1.0501728057861328
1763368294140915500,9.97991552734375,0.8668797016143799,1.1725267171859741,-0.9451726675033569
1763368294150940400,9.9899404296875,0.9529653191566467,1.1007070541381836,-0.8160455226898193
1763368294160965400,9.99996533203125,1.0087430477142334,1.140560269355774,-0.6639547944068909
1763368294170990600,10.009990478515626,1.215268850326538,1.7497189044952393,-0.48636430501937866
1763368294181015600,10.020015625,1.4885520935058594,2.126535177230835,-0.5097647309303284
1763368294191041500,10.03004150390625,1.6367104053497314,2.110240936279297,-0.6592870950698853
1763368294201066500,10.04006640625,1.6809393167495728,2.0800914764404297,-0.777356743812561
1763368294211091500,10.050091552734376,1.6272058486938477,2.0755059719085693,-0.8076525926589966
1763368294221116400,10.060116455078125,1.5145511627197266,2.1268203258514404,-0.8357702493667603
1763368294231141400,10.070141357421875,1.375463843345642,2.1979496479034424,-0.9053565263748169
1763368294241167400,10.08016748046875,1.2204867601394653,2.2225053310394287,-0.9693751931190491
1763368294251192300,10.0901923828125,1.0698221921920776,2.2054169178009033,-1.0019956827163696
1763368294261217300,10.10021728515625,0.9337205290794373,2.209426164627075,-0.9924696087837219
1763368294271242500,10.110242431640625,0.8486263751983643,2.1638598442077637,-0.9586751461029053
1763368294281267500,10.120267333984375,0.7752382159233093,2.1040382385253906,-0.9418932199478149
1763368294291293400,10.13029345703125,0.6978366374969482,2.088574171066284,-0.9543861150741577
1763368294301318400,10.140318359375,0.6021050214767456,2.0758402347564697,-0.9743891358375549
1763368294311343400,10.15034326171875,0.5103687047958374,2.0963144302368164,-0.9834476113319397
1763368294321368600,10.16036865234375,0.3860962986946106,2.0767431259155273,-0.9570876359939575
1763368294331393500,10.1703935546875,0.2662242352962494,2.0634517669677734,-0.9056316018104553
1763368294341418500,10.18041845703125,0.16032549738883972,2.0461251735687256,-0.8393955826759338
1763368294351444500,10.190444580078125,0.06944618374109268,1.9127129316329956,-0.7518631219863892
1763368294361469400,10.200469482421875,-0.03110731951892376,1.7439813613891602,-0.6487920880317688
1763368294371494400,10.210494384765624,-0.10051542520523071,1.632282018661499,-0.5680232048034668
1763368294381519400,10.220519287109376,-0.1294701099395752,1.495989441871643,-0.49206188321113586
1763368294391544300,10.23054443359375,-0.09989596903324127,1.3554227352142334,-0.4195983409881592
1763368294401570300,10.2405703125,-0.04761412367224693,1.235012173652649,-0.3474695384502411
1763368294411595300,10.25059521484375,-0.009789779782295227,1.125166893005371,-0.23163215816020966
1763368294421620500,10.260620361328124,0.05008633807301521,1.1186554431915283,-0.09242366999387741
1763368294431645400,10.2706455078125,0.14774684607982635,1.143770694732666,0.06610285490751266
1763368294441670400,10.28067041015625,0.26522260904312134,1.1717381477355957,0.20809274911880493
1763368294451696400,10.2906962890625,0.37243029475212097,1.1617475748062134,0.3055008053779602
1763368294461721300,10.300721435546874,0.43243157863616943,1.0734871625900269,0.383260577917099
1763368294471746600,10.31074658203125,0.45803600549697876,1.1663342714309692,0.39984381198883057
1763368294481771500,10.320771484375,0.46799996495246887,1.2445601224899292,0.38384807109832764
1763368294491796500,10.33079638671875,0.4836178123950958,1.3343331813812256,0.42694520950317383
1763368294501822500,10.340822509765625,0.49116066098213196,1.5247946977615356,0.509358823299408
1763368294511847400,10.350847412109376,0.5126861929893494,1.6521068811416626,0.5905594229698181
1763368294521872600,10.36087255859375,0.5575870871543884,1.593565583229065,0.6581973433494568
1763368294531897300,10.3708974609375,0.5924302935600281,1.3375276327133179,0.7360918521881104
1763368294541922300,10.38092236328125,0.6392444372177124,0.7791410684585571,0.8387151956558228
1763368294551948300,10.3909482421875,0.7410826086997986,0.12242525070905685,0.9146485328674316
1763368294561973200,10.40097314453125,0.8825782537460327,0.2236059308052063,0.948017954826355
1763368294571998500,10.41099853515625,0.9044057726860046,1.136508822441101,0.9202486276626587
1763368294582023400,10.4210234375,0.7078418731689453,1.5278337001800537,0.5100281238555908
1763368294592048400,10.43104833984375,0.49159157276153564,1.1403067111968994,-0.10226964950561523
1763368294602074400,10.441074462890626,0.3072582185268402,1.0645503997802734,-0.37060657143592834
1763368294612099300,10.451099365234375,0.17333583533763885,1.310540795326233,-0.26920562982559204
1763368294622124500,10.46112451171875,0.07835952192544937,1.0939384698867798,0.06601151078939438
1763368294632149500,10.4711494140625,-0.023731695488095284,0.674993634223938,0.44735538959503174
1763368294642174500,10.481174560546876,-0.20059248805046082,0.5833238959312439,0.8135477900505066
1763368294652200400,10.491200439453126,-0.46028611063957214,0.7879055142402649,1.130265235900879
1763368294662225400,10.501225341796875,-0.7554953694343567,0.8371061086654663,1.3927719593048096
1763368294672250600,10.511250732421875,-0.9470882415771484,0.5479241013526917,1.6036711931228638
1763368294682275300,10.521275390625,-1.0085878372192383,0.18525108695030212,1.743016004562378
1763368294692300300,10.53130029296875,-0.867908775806427,0.008490690030157566,1.7781084775924683
1763368294702325200,10.5413251953125,-0.6034701466560364,0.24508565664291382,1.5009533166885376
1763368294712351200,10.551351318359375,-0.3166714310646057,0.8110436201095581,1.0225028991699219
1763368294722376400,10.56137646484375,0.05637405812740326,1.4488818645477295,0.6798837184906006
1763368294732401400,10.5714013671875,0.20548231899738312,1.8181171417236328,0.5815533995628357
1763368294742426400,10.58142626953125,0.14304743707180023,1.813006043434143,0.5521577000617981
1763368294752452400,10.591452392578125,0.026915503665804863,1.5913037061691284,0.5161200761795044
1763368294762477300,10.601477294921875,-0.1385568082332611,1.3911173343658447,0.4374457895755768
1763368294772502500,10.61150244140625,-0.2887316644191742,1.381756067276001,0.3190932869911194
1763368294782527500,10.621527587890625,-0.3713322579860687,1.3768284320831299,0.2674333155155182
1763368294792552400,10.631552490234375,-0.405265748500824,1.3756593465805054,0.2567495107650757
1763368294802577400,10.641577392578125,-0.36325010657310486,1.4571235179901123,0.27168557047843933
1763368294812603400,10.651603271484374,-0.32112422585487366,1.6407724618911743,0.31392809748649597
1763368294822628900,10.66162890625,-0.2533819377422333,1.8432505130767822,0.43204542994499207
1763368294832653800,10.67165380859375,-0.20339226722717285,1.9993844032287598,0.5672160387039185
1763368294842678800,10.6816787109375,-0.09700804203748703,2.0665338039398193,0.680147647857666
1763368294852703700,10.691703857421874,0.040831319987773895,1.9912502765655518,0.750760018825531
1763368294862729700,10.701729736328126,0.15699228644371033,1.82655668258667,0.7685536742210388
1763368294872754700,10.711754638671875,0.2628079354763031,1.6323976516723633,0.743069052696228
1763368294882780000,10.72177978515625,0.361632764339447,1.4313910007476807,0.707641065120697
1763368294892804900,10.731804931640625,0.4195631742477417,1.229554533958435,0.6976810693740845
1763368294902829800,10.741829833984376,0.44348663091659546,1.0334519147872925,0.725499153137207
1763368294912855800,10.751855712890626,0.44098883867263794,0.819269061088562,0.7606078386306763
1763368294922880800,10.761880859375,0.4335077702999115,0.6149579882621765,0.8079388737678528
1763368294932905700,10.77190576171875,0.4245702028274536,0.4410831332206726,0.8700792193412781
1763368294942930700,10.7819306640625,0.3912854790687561,0.3369995951652527,0.9402833580970764
1763368294952955600,10.79195556640625,0.3289209008216858,0.34728845953941345,1.009344458580017
1763368294962981600,10.801981689453125,0.24220357835292816,0.4736922085285187,1.049264907836914
1763368294973006800,10.8120068359375,0.11558332294225693,0.7114829421043396,1.0572131872177124
1763368294983031800,10.82203173828125,-0.026622556149959564,1.0066711902618408,1.0233873128890991
1763368294993056800,10.832056884765626,-0.15579038858413696,1.2709912061691284,0.9376415014266968
1763368295003081700,10.842081787109375,-0.2300233393907547,1.4373857975006104,0.8171547651290894
1763368295013107700,10.852107666015625,-0.2766244113445282,1.432778239250183,0.6795718669891357
1763368295023133000,10.8621328125,-0.2853454649448395,1.218796968460083,0.5117511749267578
1763368295033158000,10.872157958984374,-0.2540312111377716,0.8487794995307922,0.3248521089553833
1763368295043182800,10.882182861328126,-0.19619880616664886,0.42746105790138245,0.1634184867143631
1763368295053207800,10.892207763671875,-0.13653095066547394,0.012865465134382248,-0.00458596320822835
1763368295063233000,10.90223291015625,-0.07294318079948425,-0.34469106793403625,-0.21158628165721893
1763368295073258800,10.9122587890625,-0.038249384611845016,-0.5781757235527039,-0.48104625940322876
1763368295083284000,10.922283935546876,-0.006958573590964079,-0.6527413129806519,-0.8800581097602844
1763368295093308700,10.93230859375,0.096535325050354,-0.523098349571228,-1.3592547178268433
1763368295103333600,10.942333740234375,0.2906073331832886,-0.16761723160743713,-1.7733086347579956
1763368295113358800,10.95235888671875,0.48794808983802795,0.3382169306278229,-1.98890221118927
1763368295123384800,10.962384765625,0.6046283841133118,0.8363444209098816,-2.0121545791625977
1763368295133409800,10.972409912109375,0.6536992788314819,1.1843929290771484,-2.00034236907959
1763368295143434800,10.982434814453125,0.6331872940063477,1.2981184720993042,-2.0716331005096436
1763368295153459700,10.992459716796875,0.4576903283596039,1.2637958526611328,-2.29084849357605
1763368295163485000,11.00248486328125,0.10829371958971024,1.0916858911514282,-2.8206608295440674
1763368295173511000,11.012510986328126,-0.24873419106006622,0.9183013439178467,-3.3817296028137207
1763368295183535900,11.022535888671875,-0.5167600512504578,0.7077691555023193,-3.7581958770751953
1763368295193560800,11.032560791015625,-0.6957234144210815,0.3664584159851074,-3.919517755508423
1763368295203585800,11.042585693359374,-0.7300240993499756,-0.11849389225244522,-3.9243102073669434
1763368295213611000,11.052611083984376,-0.6568138003349304,-0.3003007173538208,-3.829477071762085
1763368295223637000,11.062636962890625,-0.4111827611923218,-0.266552597284317,-3.670581340789795
1763368295233662000,11.072661865234375,0.14423733949661255,-0.12539547681808472,-3.35668683052063
1763368295243686700,11.082686767578124,0.5264803171157837,0.17143380641937256,-2.9857494831085205
1763368295253711600,11.092711669921876,0.6783012747764587,0.28087347745895386,-2.759816884994507
1763368295263736800,11.10273681640625,0.7868871092796326,0.15568333864212036,-2.5326976776123047
1763368295273762800,11.1127626953125,0.915433943271637,0.017180584371089935,-2.272512674331665
1763368295283787800,11.122787841796875,1.1607246398925781,0.1789332628250122,-2.056838274002075
1763368295293812700,11.132812744140624,1.5602529048919678,0.20757289230823517,-2.1595335006713867
1763368295303837700,11.142837646484375,1.703634262084961,0.4287630617618561,-2.599059820175171
1763368295313863000,11.15286279296875,1.8353185653686523,1.137937307357788,-3.044257402420044
1763368295323887900,11.162887939453125,1.9374909400939941,1.969270944595337,-3.378638744354248
1763368295333913900,11.172913818359374,1.9781910181045532,2.5569727420806885,-3.537357807159424
1763368295343938800,11.182938720703126,1.9323643445968628,2.9296162128448486,-3.5585131645202637
1763368295353963800,11.1929638671875,1.7519991397857666,2.880194902420044,-3.4921810626983643
1763368295363989000,11.202989013671875,1.5465892553329468,2.6801724433898926,-3.3889174461364746
1763368295374014000,11.213013916015624,1.3520362377166748,2.6521964073181152,-3.361063241958618
1763368295384040000,11.2230400390625,1.2639034986495972,2.5224149227142334,-3.38454008102417
1763368295394065000,11.23306494140625,1.1960463523864746,2.4232451915740967,-3.4184412956237793
1763368295404089600,11.243089599609375,1.0725162029266357,2.640712261199951,-3.5002517700195312
1763368295414114800,11.25311474609375,0.9561472535133362,2.7409772872924805,-3.478020191192627
1763368295424139800,11.263139892578126,0.9279822111129761,2.3258845806121826,-3.229895830154419
1763368295434165800,11.273165771484376,0.8425224423408508,1.9929933547973633,-2.9362168312072754
1763368295444190700,11.283190673828125,0.7802963256835938,1.7594208717346191,-2.6879420280456543
1763368295454215700,11.293215576171875,0.8086621761322021,1.480664610862732,-2.429732322692871
1763368295464241000,11.303240966796874,0.8240398168563843,1.2604049444198608,-2.1921002864837646
1763368295474265900,11.313265869140626,0.8695428371429443,1.0268129110336304,-1.9321010112762451
1763368295484291800,11.323291748046875,0.9538987278938293,0.7295436859130859,-1.6362402439117432
1763368295494316800,11.33331689453125,1.0618762969970703,0.35457858443260193,-1.2829922437667847
1763368295504341800,11.343341796875,1.0935559272766113,0.43997231125831604,-1.0428494215011597
1763368295514367000,11.353366943359376,1.132874846458435,0.5822769999504089,-0.8428223133087158
1763368295524392000,11.363391845703125,1.2003726959228516,0.5169035792350769,-0.5890288949012756
1763368295534416600,11.373416748046875,1.1446071863174438,0.6139137744903564,-0.36235421895980835
1763368295544443000,11.38344287109375,1.1031849384307861,0.5978061556816101,-0.1273462325334549
1763368295554467600,11.393467529296874,1.0836061239242554,0.5753740668296814,0.043537355959415436
1763368295564492800,11.403492919921876,1.0687795877456665,0.586455225944519,0.16648058593273163
1763368295574517800,11.413517822265625,1.0728759765625,0.5984141826629639,0.30960550904273987
1763368295584542700,11.423542724609375,1.0820846557617188,0.5713924169540405,0.5065585374832153
1763368295594568700,11.433568603515624,1.1298799514770508,0.4710966944694519,0.7519147396087646
1763368295604593700,11.44359375,1.1881051063537598,0.3866129517555237,1.01389741897583
1763368295614619000,11.453618896484375,1.229322075843811,0.3186586797237396,1.3018004894256592
1763368295624643800,11.463643798828125,1.2518031597137451,-0.03648477420210838,1.4574992656707764
1763368295634668800,11.473668701171874,1.1420308351516724,-1.3388760089874268,0.4574807286262512
1763368295644694800,11.48369482421875,1.0147240161895752,-1.758398175239563,-0.5156739950180054
1763368295654719700,11.4937197265625,1.0043771266937256,-0.39587196707725525,0.4027458429336548
1763368295664745000,11.503744873046875,0.8669342994689941,1.5746402740478516,1.2106719017028809
1763368295674770000,11.51377001953125,0.9734652638435364,1.5810571908950806,1.1817593574523926
1763368295684795000,11.523794921875,0.9384609460830688,-0.45937851071357727,0.23317359387874603
1763368295694820900,11.53382080078125,0.6475356221199036,0.09970635175704956,-0.016771256923675537
1763368295704845600,11.543845458984375,0.30807340145111084,1.6354568004608154,0.7423497438430786
1763368295714870800,11.553870849609375,0.09477417916059494,0.6868007183074951,1.2557926177978516
1763368295724895700,11.563895751953124,0.10706812888383865,-0.7198705673217773,1.469101071357727
1763368295734920700,11.573920654296876,0.16321715712547302,-0.8938769698143005,1.8229560852050781
1763368295744946700,11.58394677734375,0.13027864694595337,-0.6821817755699158,1.9507780075073242
1763368295754971600,11.5939716796875,-0.00018349179299548268,-0.4527738690376282,2.0333831310272217
1763368295764996900,11.603996826171874,-0.002514556748792529,-0.5038442611694336,2.0267415046691895
1763368295775021800,11.614021728515626,0.08884944766759872,-0.3955601155757904,1.9266759157180786
1763368295785046800,11.624046875,0.1628911793231964,-0.08519531786441803,1.9010112285614014
1763368295795071700,11.63407177734375,0.22400540113449097,-0.0011235876008868217,1.9108319282531738
1763368295805097700,11.64409765625,0.2614177465438843,-0.10078307241201401,1.946902871131897
1763368295815123000,11.654123046875,0.2486409693956375,-0.18469128012657166,1.9845147132873535
1763368295825149200,11.664149169921876,0.17996364831924438,-0.2272171676158905,2.002424955368042
1763368295835174100,11.674174072265625,0.08474311977624893,-0.2762443721294403,2.0666399002075195
1763368295845199000,11.68419921875,0.021632324904203415,-0.4531041085720062,2.1838037967681885
1763368295855225000,11.69422509765625,-0.009614277631044388,-0.6476805210113525,2.285517692565918
1763368295865250000,11.70425,0.0028336034156382084,-0.8421059250831604,2.3536813259124756
1763368295875275000,11.71427490234375,-0.012119513005018234,-0.8774333000183105,2.42382550239563
1763368295885300200,11.72430029296875,-0.07076738029718399,-0.8978442549705505,2.4778428077697754
1763368295895325200,11.7343251953125,-0.16322673857212067,-0.8926580548286438,2.538414239883423
1763368295905351200,11.74435107421875,-0.3197076916694641,-0.9013702869415283,2.5742902755737305
1763368295915376000,11.754376220703126,-0.5033369064331055,-0.9049496054649353,2.6204514503479004
1763368295925401000,11.764401123046875,-0.6493217945098877,-0.8131267428398132,2.644124984741211
1763368295935426300,11.77442626953125,-0.7048841118812561,-0.7502646446228027,2.6206421852111816
1763368295945451300,11.784451171875,-0.6952754259109497,-0.5577873587608337,2.5350522994995117
1763368295955477200,11.794477294921874,-0.6791604161262512,-0.39210784435272217,2.4476935863494873
1763368295965502200,11.804502197265625,-0.7139671444892883,-0.29734060168266296,2.3823466300964355
1763368295975527200,11.814527099609375,-0.7933695316314697,-0.1718175709247589,2.2922065258026123
1763368295985552100,11.82455224609375,-0.9075477719306946,0.029987992718815804,2.173957586288452
1763368295995577000,11.8345771484375,-0.9528830051422119,0.3718385398387909,2.045097827911377
1763368296005603000,11.84460302734375,-0.9402719140052795,0.8185425400733948,1.881382703781128
1763368296015628000,11.8546279296875,-0.8310601711273193,1.244567632675171,1.7175489664077759
1763368296025653200,11.8646533203125,-0.686720609664917,1.536394715309143,1.6161757707595825
1763368296035678200,11.87467822265625,-0.5175203680992126,1.6731024980545044,1.602782964706421
1763368296045703200,11.884703125,-0.31281834840774536,1.4080766439437866,1.6783760786056519
1763368296055728000,11.89472802734375,-0.15396586060523987,0.8755056858062744,1.8063478469848633
1763368296065754000,11.904754150390625,-0.027099793776869774,0.2904488742351532,1.9489790201187134
1763368296075779000,11.914779052734374,0.04547826945781708,-0.21300680935382843,2.0873546600341797
1763368296085804300,11.92480419921875,0.10202596336603165,-0.5926143527030945,2.223702907562256
1763368296095829200,11.934829345703125,0.12800003588199615,-0.7717081904411316,2.325411319732666
1763368296105854200,11.944854248046875,0.1405307501554489,-0.694715142250061,2.4175126552581787
1763368296115880200,11.954880126953125,0.1517019122838974,-0.5944034457206726,2.4526147842407227
1763368296125905200,11.9649052734375,0.1863592267036438,-0.8272182941436768,2.357760429382324
1763368296135930000,11.97493017578125,0.1805380880832672,-1.4162925481796265,2.1739115715026855
1763368296145955000,11.984955078125,0.12991832196712494,-2.1790528297424316,1.960447907447815
1763368296155980000,11.99497998046875,0.16816876828670502,-2.7198095321655273,1.8114774227142334
1763368296166006000,12.005006103515624,0.3946671485900879,-2.7964131832122803,1.8796985149383545
1763368296176031200,12.01503125,0.6517530083656311,-2.337479591369629,2.0984325408935547
1763368296186056200,12.02505615234375,0.5369102954864502,-1.4252742528915405,2.2307755947113037
1763368296196081200,12.0350810546875,0.2082251012325287,-0.10901782661676407,2.030388593673706
1763368296206106000,12.045106201171874,-0.0963054969906807,1.441835641860962,1.4509450197219849
1763368296216132000,12.055132080078126,-0.4942896068096161,3.047590732574463,0.6482943892478943
1763368296226157300,12.0651572265625,-0.720341145992279,4.334010124206543,-0.04103558510541916
1763368296236182300,12.075182373046875,-0.748805820941925,5.0118327140808105,-0.37880802154541016
1763368296246207200,12.085207275390625,-0.5400307178497314,4.388147354125977,-0.4048018157482147
1763368296256232200,12.095232177734376,-0.04487133398652077,1.5858924388885498,-0.192153200507164
1763368296266258200,12.105258056640626,0.5013818740844727,-2.043595790863037,0.17839264869689941
1763368296276283400,12.115283447265625,0.7441313862800598,-4.108773231506348,0.5061087012290955
1763368296286308000,12.12530810546875,0.8462029099464417,-4.769493579864502,0.6241770386695862
1763368296296333000,12.1353330078125,0.8823564052581787,-4.604134559631348,0.5533060431480408
1763368296306358000,12.14535791015625,0.7712059020996094,-4.03093147277832,0.3247426748275757
1763368296316384000,12.155384033203125,0.5292348265647888,-3.0758697986602783,-0.018561434000730515
1763368296326409200,12.1654091796875,0.21782927215099335,-2.1323368549346924,-0.2370801866054535
1763368296336434200,12.17543408203125,-0.027340544387698174,-1.3125956058502197,-0.22578412294387817
1763368296346459100,12.185459228515626,-0.1812313050031662,-0.4512156546115875,-0.09331716597080231
1763368296356484000,12.195484130859375,-0.22686803340911865,0.6251932978630066,0.028078505769371986
1763368296366510000,12.205510009765625,-0.283174991607666,1.7021689414978027,0.17907734215259552
1763368296376535300,12.215535400390625,-0.3635859489440918,2.5406861305236816,0.38284751772880554
1763368296386560300,12.225560302734374,-0.3565376102924347,3.1117992401123047,0.45733025670051575
1763368296396585200,12.235585205078126,-0.36210522055625916,3.5514631271362305,0.2986055910587311
1763368296406610200,12.245610107421875,-0.46481481194496155,3.8856818675994873,-0.047029826790094376
1763368296416635400,12.255635498046875,-0.5667712688446045,3.858616590499878,-0.5700440406799316
1763368296426661400,12.265661376953124,-0.6239919662475586,2.8863179683685303,-1.1906566619873047
1763368296436686300,12.275686279296876,-0.5370565056800842,0.9161639213562012,-1.3901299238204956
1763368296446711000,12.2857109375,-0.27137264609336853,-1.0447354316711426,-1.0641487836837769
1763368296456736000,12.295736083984375,0.014007162302732468,-2.2940642833709717,-0.6076577305793762
1763368296466761200,12.30576123046875,0.247614324092865,-2.68408465385437,-0.30810749530792236
1763368296476787200,12.315787109375,0.35329121351242065,-2.475358247756958,-0.189911350607872
1763368296486812200,12.325812255859375,0.3134641647338867,-1.9736849069595337,-0.28537821769714355
1763368296496837000,12.335837158203125,0.16029725968837738,-1.2590160369873047,-0.5675808787345886
1763368296506862000,12.345862060546875,-0.08756100386381149,-0.4446570873260498,-0.8926764130592346
1763368296516887300,12.35588720703125,-0.3053460717201233,0.2805863916873932,-1.2257540225982666
1763368296526913300,12.365913330078126,-0.4598133862018585,0.8228105306625366,-1.5174728631973267
1763368296536938200,12.375938232421875,-0.5788665413856506,1.2211350202560425,-1.8213214874267578
1763368296546963200,12.385963134765625,-0.6568707823753357,1.5376980304718018,-2.200937271118164
1763368296556988200,12.39598828125,-0.6789222955703735,1.7763795852661133,-2.659435510635376
1763368296567013400,12.406013427734376,-0.6835775375366211,1.9218946695327759,-3.150134801864624
1763368296577039400,12.416039306640625,-0.6411349773406982,1.70302414894104,-3.7450058460235596
1763368296587064300,12.426064208984375,-0.5608199238777161,1.0033150911331177,-4.27298641204834
1763368296597089000,12.436089111328124,-0.4567273259162903,-0.11858390271663666,-4.302427291870117
1763368296607114000,12.446114013671876,-0.3902801275253296,-1.3178383111953735,-3.6208877563476562
1763368296617139200,12.45613916015625,-0.6174262166023254,-2.22065806388855,-2.730333089828491
1763368296627165200,12.466165283203125,-0.6515442132949829,-2.8847339153289795,-2.116605043411255
1763368296637190100,12.476190185546875,-0.15071307122707367,-3.572125196456909,-1.8723931312561035
1763368296647215000,12.486215087890624,0.20443063974380493,-3.5752758979797363,-2.009450912475586
1763368296657240000,12.496239990234375,0.09650789946317673,-2.964782953262329,-2.3263118267059326
1763368296667265300,12.506265380859375,-0.0007222492713481188,-2.343043565750122,-2.7375268936157227
1763368296677291300,12.516291259765625,-0.08064504712820053,-1.8285669088363647,-3.0454578399658203
1763368296687316200,12.526316162109374,-0.009959157556295395,-1.3040434122085571,-3.110182046890259
1763368296697341200,12.536341064453126,0.007436078507453203,-0.480135977268219,-3.2405455112457275
1763368296707366100,12.5463662109375,-0.01197863183915615,0.3138681650161743,-3.5293197631835938
1763368296717391400,12.556391357421875,0.0712084025144577,0.7583228349685669,-3.8523712158203125
1763368296727417300,12.566417236328125,0.14599795639514923,0.7502934336662292,-4.10268497467041
1763368296737442300,12.5764423828125,0.29302069544792175,0.26309528946876526,-4.08674955368042
1763368296747467300,12.58646728515625,0.3751608431339264,-0.11225969344377518,-3.8015947341918945
