time,seconds_elapsed,z,y,x
1763367247539259000,0.0892587890625,0.18537351852953432,0.8130278629779816,1.4935069119021296
1763367247549286000,0.099285888671875,0.003664367726445198,0.8602659994930029,1.5761019007414578
1763367247559313000,0.10931298828125,-0.05713292306363582,2.1474936752200127,2.614498023506999
1763367247569340000,0.11933984375,1.4561971719443798,2.086621273367107,2.089270911093056
1763367247579368000,0.129367919921875,2.410130466172099,1.4084706673905252,0.8579163676269352
1763367247589394700,0.139394775390625,2.9473779789865016,0.5691615312084556,-0.3923138489618897
1763367247599422000,0.149421875,2.7986767792940137,-0.2269365320175886,-1.417565974124521
1763367247609449000,0.159448974609375,1.7382669776409863,-0.9608546179234981,-2.2128270020045337
1763367247619476000,0.16947607421875,-0.012032383099198341,-1.730686313253641,-3.2307395780593153
1763367247629503000,0.1795029296875,-1.153053014037013,-2.1398975210025903,-3.7235996676146983
1763367247639530000,0.189530029296875,-0.9110539374440908,-1.7480656103387473,-3.2356203358381985
1763367247649557000,0.199556884765625,-0.5484586426585912,-1.021765890482068,-2.5905390557706354
1763367247659583700,0.209583740234375,0.1302969434738159,-0.1549544148683548,-1.6464435572072862
1763367247669611000,0.219611083984375,0.6216185714155436,0.6951318436548113,-0.6205076875641942
1763367247679638000,0.229637939453125,0.9564543371379375,1.2525868627175687,0.03139130969420075
1763367247689665800,0.239665771484375,1.1547487120389939,1.5705445588752627,0.494729244428128
1763367247699693000,0.249693115234375,1.818700112271309,1.9319445063963532,0.3708322311244905
1763367247709719800,0.2597197265625,0.9053104253560305,2.2375135533630846,-1.3767640081368386
1763367247719746800,0.269746826171875,1.0099059413403273,2.343098080384731,-1.8023463588416575
1763367247729774000,0.279774169921875,1.6782827567994594,2.582437874640524,-1.4875634933277964
1763367247739800800,0.28980078125,3.2353362581998106,2.7748335468918084,-1.8273194720566273
1763367247749827800,0.299827880859375,3.896391352468729,2.809456239722669,-2.9162027962610124
1763367247759854800,0.309854736328125,4.146654984059929,2.4916823756992814,-4.2460839110612865
1763367247769881900,0.3198818359375,4.2309658369064325,1.4508897131860254,-5.738519686600566
1763367247779908900,0.329908935546875,3.7863270496845245,-0.3907783099576831,-6.168186530140042
1763367247789935900,0.339935791015625,2.6000527340471744,-1.5692650404587387,-5.301761423495411
1763367247799964000,0.3499638671875,0.528096822631359,0.012746376587450503,-3.5377608696609735
1763367247809991000,0.359990966796875,0.8264145832955837,2.2167118806138633,-2.6443653385043144
1763367247820018000,0.370017822265625,1.796976356241107,3.4114740386113525,-2.421666590186953
1763367247830045000,0.380044921875,1.622199050527811,3.7964404474198816,-2.2355700180798768
1763367247840072000,0.390072021484375,-0.10618366195857525,3.3816093539625403,-1.604096992126107
1763367247850099000,0.400098876953125,0.0035942250996828075,2.2827650461055335,-0.4959744221836328
1763367247860126000,0.4101259765625,0.5477466949969529,1.5659091541595755,0.3194634245455265
1763367247870153000,0.420153076171875,-0.20081834042072294,1.8036629943981766,0.7268062080740928
1763367247880180000,0.430179931640625,0.7757014641463756,2.453184302739799,0.6644505819261074
1763367247890206700,0.440206787109375,4.005129959607124,2.758811801895499,0.29801205571591854
1763367247900235000,0.450235107421875,4.942965520992875,2.8994682268202303,0.37814065444171424
1763367247910261800,0.46026171875,4.026775974225997,2.5461679991245267,-0.3873661634266376
1763367247920288800,0.470288818359375,2.800880426818132,1.3735720802277325,-1.5717857911080122
1763367247930316000,0.48031591796875,0.39295769982337947,1.1785930404197424,-1.1987766543358565
1763367247940342800,0.4903427734375,-1.4267752626270056,1.8316648077845572,-0.05700257468223571
1763367247950369800,0.500369873046875,-2.167296984581649,2.034874134995043,1.224783202251792
1763367247960397000,0.51039697265625,-2.6801579518973826,1.9066889229781925,2.5961972276628016
1763367247970424000,0.520424072265625,-2.784505630600452,1.6154449000924824,3.4000410827100276
1763367247980450800,0.530450927734375,-2.2903604696705937,1.6113501781247555,3.8136885193407535
1763367247990477800,0.540477783203125,-1.678231318873167,1.8483710279136896,4.1612621860831975
1763367248000505900,0.550505859375,-1.0416966256156563,1.560937064835429,3.986359208163619
1763367248010532900,0.560532958984375,-0.4960989253461361,0.6540365938089787,3.6766421016067263
1763367248020560000,0.570559814453125,0.10707301201373338,-0.3556768206339329,3.3154888223230836
1763367248030587000,0.5805869140625,0.9624655602514743,-0.6258071091465651,3.301148162281513
1763367248040614000,0.59061376953125,2.2809549279436467,-0.9175055978015064,3.424813120394945
1763367248050641000,0.600640869140625,3.7189758072063324,-1.7552287799663842,3.427082818892598
1763367248060668000,0.61066796875,4.22221642100066,-2.6860727288991213,3.455304120248556
1763367248070695000,0.62069482421875,3.1454885217532516,-4.744114096730947,4.456552707880735
1763367248080722000,0.630721923828125,2.1417834808796643,-4.8746489406138656,5.636157044234872
1763367248090748700,0.640748779296875,2.598938050803542,-3.5017981603980064,6.622105186882615
1763367248100777000,0.65077685546875,2.8319270147278903,-4.63881072473824,8.459056410637498
1763367248110804000,0.660803955078125,3.2847353721410033,-3.3920278721243142,7.70549546662867
1763367248120831000,0.6708310546875,3.967703607532382,-2.012815447922051,5.012521872299909
1763367248130858000,0.68085791015625,2.786609909403324,-2.2842691670581696,2.587747379225492
1763367248140885000,0.690885009765625,-0.07896335433870554,-1.8895310135588048,0.166543145853281
1763367248150911700,0.700911865234375,-3.3115894767969847,-1.318225456058979,-0.5554670601159334
1763367248160939000,0.71093896484375,-5.328841153600812,-0.8185264603942632,0.6730541596204042
1763367248170966000,0.720966064453125,-6.114857675534487,-1.4283201539814472,1.2282605229735373
1763367248180992800,0.73099267578125,-6.3700996800601475,-2.2799264616787434,1.4335270749747753
1763367248191020000,0.74102001953125,-6.758904936379194,-1.9051313182726501,0.2868295674443245
1763367248201047800,0.7510478515625,-6.666945614606141,-1.43598937343508,0.38723055434823034
1763367248211074800,0.76107470703125,-5.483999566608667,-1.150016715081036,0.8043190713435411
1763367248221102000,0.77110205078125,-4.763084754660725,-0.9588453239277005,1.073282727229595
1763367248231128800,0.78112890625,-4.609501628145575,-0.8663546717569232,1.4628215585201978
1763367248241155800,0.79115576171875,-4.794924831035733,-0.7850812869101762,1.775714957025647
1763367248251182800,0.801182861328125,-4.00760979372412,-1.0902917296975851,2.2346634246289727
1763367248261209900,0.8112099609375,-3.083468118909001,-1.366857385019958,3.024178310072422
1763367248271236900,0.82123681640625,-3.15697057749331,-1.2428639256045222,3.707071142140031
1763367248281263900,0.831263916015625,-3.7223824007794257,-0.8423717386230826,4.221332916164398
1763367248291291000,0.841290771484375,-3.836268015417456,-0.6254004280418157,4.149644229003787
1763367248301319000,0.85131884765625,-3.444621398192644,-0.649316725680232,3.382960768571496
1763367248311346000,0.861345947265625,-2.538537650376558,-0.8817135689303278,2.4401632008641956
1763367248321373000,0.871373046875,-1.6958993697717786,-1.1492664812356232,1.432009071627259
1763367248331400000,0.88139990234375,-1.107997336127609,-1.1273638615071773,0.616574732029438
1763367248341427000,0.891427001953125,0.014599749369174242,-1.3973894475363193,0.10174071107506752
1763367248351453700,0.90145361328125,0.5283009669013321,-1.4689071620441971,0.14876958875358104
1763367248361481000,0.91148095703125,-0.8025295575782656,-0.8711251010291278,0.47050563440620896
1763367248371508000,0.921508056640625,-1.0415978414162992,-0.463818557857722,0.6282090557217598
1763367248381534700,0.93153466796875,2.971798134493828,-1.1830901326432823,1.0019529365092514
1763367248391562000,0.94156201171875,5.337024460056424,-1.5105945325642822,1.645013524404168
1763367248401589800,0.95158984375,5.230548537153005,-1.1882286645755171,2.004954505288601
1763367248411616800,0.96161669921875,4.4101881393298505,-0.8766597926720976,1.7098083603978156
1763367248421644000,0.97164404296875,2.7608219726741314,-0.5410032120861112,1.690152642813325
1763367248431670800,0.9816708984375,1.1883113744229077,-1.101095740045607,1.4779963312983513
1763367248441697800,0.99169775390625,-0.3401408863931894,-1.6315690825499594,1.0126163693428039
1763367248451724800,1.001724853515625,-1.7020619840547442,-1.782396188355237,0.6383622009456157
1763367248461752000,1.011751953125,-2.5980942934557794,-1.6233184099465607,0.8128793944180012
1763367248471778800,1.02177880859375,-2.487953126043081,-1.3849974373444913,0.5263730675786733
1763367248481805800,1.031805908203125,-1.9636060113340614,-1.1418016983129085,0.2738578576683998
1763367248491833000,1.0418330078125,-0.32211130870580673,-0.6591551058664917,0.718622317096591
1763367248501860900,1.05186083984375,0.717973205538094,-0.4965688809454441,1.3303034318655729
1763367248511888000,1.061887939453125,1.5479472348809242,-0.8180239176996051,2.1890461673140527
1763367248521915000,1.071914794921875,4.179358983787894,-1.2321465706266461,3.135049253064394
1763367248531942000,1.08194189453125,4.221845249600708,-1.2393762296192348,4.059945253378153
1763367248541969000,1.091968994140625,1.9130624035328625,-0.6771392369769513,5.144473012721538
1763367248551995600,1.10199560546875,-0.4455177620135247,-0.011789806514978409,4.913516139146686
1763367248562023000,1.11202294921875,1.742247279448807,-0.13632964776679873,4.68206008387804
1763367248572050000,1.1220498046875,3.7713551060020922,-0.10906484341807662,2.808160062432289
1763367248582076700,1.13207666015625,-2.0526526605308053,1.2334959394089877,1.1114753875017165
1763367248592104000,1.14210400390625,-2.2591122217088935,0.8926021157566457,-1.090799094697833
1763367248602132000,1.152132080078125,-2.8682383912980556,1.1461887542907148,-2.123967253682017
1763367248612158700,1.16215869140625,-2.789661405928433,1.618002767881751,-2.156031201940775
1763367248622186000,1.17218603515625,-1.5880536198198794,1.95498285215646,-2.062653830063343
1763367248632213000,1.182212890625,-0.5499924280971288,2.0929440466478466,-1.7802929324656724
1763367248642239700,1.19223974609375,0.593178074350953,1.980795046544075,-1.4846926140666008
1763367248652266800,1.202266845703125,2.255336356431991,2.0666376390025016,-1.2440087117254732
1763367248662294000,1.2122939453125,3.74709510949254,2.2786130409926173,-1.4967647446542978
1763367248672320800,1.22232080078125,4.8636701582208275,2.6920699234873053,-1.8635837946146725
1763367248682347800,1.23234765625,4.068243710646033,3.181677440987527,-1.58932086327672
1763367248692375800,1.242375732421875,2.4752362678110598,3.057310472084582,-1.6113550004303454
1763367248702402800,1.25240283203125,0.7448691035091877,2.661297768604755,-2.0458809744387865
1763367248712429800,1.262429931640625,-1.0601841762036084,2.122752032673359,-2.404444237229228
1763367248722456800,1.272456787109375,-1.8422215653732419,1.6898288176864384,-2.6740707409381863
1763367248732483800,1.28248388671875,-2.8318814220204946,1.213725217142701,-2.556795191600919
1763367248742510800,1.2925107421875,-3.831712836331129,0.8719650589846074,-3.038837534543872
1763367248752537900,1.302537841796875,-4.70000139876008,1.0185492665231228,-3.341592985394597
1763367248762564900,1.31256494140625,-4.469343508131802,1.2250560278438032,-3.3207243848890062
1763367248772591900,1.322591796875,-2.6915128741264343,1.1200685899324714,-3.781985805609822
1763367248782619000,1.332618896484375,-0.11073913330584764,0.616811463394761,-4.296757282721996
1763367248792647000,1.34264697265625,2.1032285631664096,-0.3097543698273599,-3.8224241989821195
1763367248802674000,1.352673828125,5.986529401785135,-0.6418665558047593,-1.8639438600987195
1763367248812700700,1.36270068359375,9.107975076910853,-0.46966392288506026,-0.9835428350716828
1763367248822728000,1.37272802734375,6.793260794967413,-1.0352698074385522,-1.3554291052937506
1763367248832755000,1.3827548828125,1.9303192432820795,-2.1686630122378467,-2.5961212398171423
1763367248842781700,1.39278173828125,-1.3162601473353803,-2.4839634718850254,-3.8149768055856224
1763367248852809000,1.40280908203125,-2.452542789965868,-1.8256334186658263,-3.947141296496987
1763367248862836000,1.4128359375,-2.735941213917732,-1.3705489330142735,-4.3314007260799405
1763367248872862700,1.42286279296875,-2.601966458714008,-2.244745550443232,-6.283949336826801
1763367248882891000,1.43289111328125,-3.027245880949497,-1.4357514730259775,-3.8114462933719158
1763367248892917800,1.442917724609375,-2.8066245234280824,-0.8960817015007138,-1.3467840265452862
1763367248902944800,1.45294482421875,-2.121415669503063,-1.0285872609347104,1.5637848554819822
1763367248912972000,1.462971923828125,-0.5531967770963907,-1.8267568697378038,3.904682210952043
1763367248922998800,1.472998779296875,1.4204963284879921,-2.322841766558587,3.7641929592877625
1763367248933025800,1.48302587890625,1.900437315237522,-2.730760304148495,2.309506191906333
1763367248943052800,1.493052734375,1.4966291355758905,-2.9302924041509626,2.413330723518133
1763367248953080000,1.503080078125,1.51578333337903,-2.7863667482972145,3.0760242326438427
1763367248963106800,1.51310693359375,1.2630869216829537,-2.9875670737728477,2.0998703387796875
1763367248973133800,1.5231337890625,0.96216811167486,-3.5349946198180318,0.7519435719400643
1763367248983161900,1.533161865234375,0.9376345589209347,-3.4393720993623136,-0.03050853551030159
1763367248993188900,1.54318896484375,0.8161480408251285,-2.5757705257058143,-0.5145248088747263
1763367249003216000,1.5532158203125,0.9865086991399526,-1.728774926674366,-1.5133680889308452
1763367249013243000,1.563242919921875,0.4962719438254833,-0.47427053989768025,-2.1870991248995066
1763367249023270000,1.573269775390625,-0.2259447445012629,2.156851870673895,-2.587719906696677
1763367249033297000,1.583296875,-0.9757307000160217,4.389990862214565,-2.2116028670370578
1763367249043323600,1.59332373046875,-1.7466829238086938,4.995409993979335,-0.6079442663282155
1763367249053351000,1.603350830078125,-1.4868284570515156,3.994517964699864,0.6414356170415878
1763367249063378000,1.6133779296875,0.09059161361642182,2.5866800422549248,1.4298562775075434
1763367249073405700,1.62340576171875,2.274703174072504,1.2414046667069196,1.614938704136014
1763367249083433000,1.633432861328125,3.40456820474565,-0.0003308393895626068,1.8838555982708929
1763367249093460000,1.6434599609375,2.4701252084076404,-0.4970692316830158,1.402674840593338
1763367249103486700,1.65348681640625,1.0257686963826418,-1.2217863585233688,0.10738485444188117
1763367249113514000,1.663513916015625,1.7105829980321228,-1.4425813190460204,-0.5948118130326271
1763367249123541000,1.673541015625,3.1015637475699185,-1.1443792937159538,-1.3181839550048111
1763367249133567700,1.683567626953125,2.3745102867364882,-1.6566238826990127,-1.65353293094635
1763367249143594800,1.6935947265625,0.32378713296353817,-3.2635511298149824,-1.8928163188397884
1763367249153622000,1.7036220703125,-0.4083922925814986,-4.498018106213212,-2.401570143097639
1763367249163648800,1.713648681640625,-0.9736179456457495,-2.4662790543735027,-0.47948213706612586
1763367249173677000,1.723677001953125,-1.1752845734588802,2.394251929038763,1.9764444501191376
1763367249183703800,1.733703857421875,-0.7097726556867361,6.017694939899444,3.1027520805716513
1763367249193730800,1.743730712890625,-0.6482073031336069,6.794008982986211,3.042858460623026
1763367249203757800,1.7537578125,-1.3504513168811798,3.0409494121313094,1.3805758215099573
1763367249213784800,1.763784912109375,-0.6024455227814615,-1.4697393750846386,-0.40990415844917294
1763367249223811800,1.773811767578125,2.010638980665803,-1.7710381973862648,0.3592155892193317
1763367249233838800,1.7838388671875,3.3435032029300924,-1.3973217891275882,0.6496662697702645
1763367249243865900,1.793865966796875,3.368422832392156,-1.8571669133096933,-0.20897417434751986
1763367249253892900,1.803892822265625,2.2600354740336535,-2.6542326525241133,-1.395858146315813
1763367249263921000,1.8139208984375,1.3023752682372927,-3.510004847729206,-2.406655483537912
1763367249273948000,1.823947998046875,0.19581249495744704,-3.3106998344808813,-1.868366352716088
1763367249283975000,1.833974853515625,-1.3281105979964136,-1.5849784501582382,0.7168079611510038
1763367249294002000,1.844001953125,-0.7013026412442326,-0.43534430465400215,2.729936420544982
1763367249304028700,1.854028564453125,0.9808061035841703,0.49861763016879557,5.18479157910645
1763367249314056000,1.864055908203125,1.4748089334338903,1.048295585489273,6.121667940071225
1763367249324083000,1.8740830078125,1.1162234588116406,1.1975094108790159,5.506902887812257
1763367249334109700,1.884109619140625,-0.03170388277471065,1.6142910538822413,5.460653177812695
1763367249344137000,1.894136962890625,-2.168529302855581,1.8395219510257244,5.463949296748638
1763367249354164700,1.904164794921875,-4.376112266726792,1.6574638406544924,5.34300061185658
1763367249364191700,1.914191650390625,-4.933302789634466,0.4282324268221855,4.8099195710718625
1763367249374219000,1.924218994140625,-3.589233282744884,-0.5849181955277919,3.710146311801672
1763367249384245800,1.934245849609375,-2.1602146251052616,-3.691534550312161,1.2314794850200415
1763367249394272800,1.944272705078125,-0.0015389000050723552,-4.118705485382676,0.3733341309428215
1763367249404300000,1.954300048828125,1.173416149238497,-3.904945830324292,-0.4574269571244716
1763367249414326800,1.964326904296875,1.9627252829767763,-3.686197865459323,-0.9988584776252507
1763367249424354300,1.974354248046875,2.774615520226955,-2.732411286225915,-1.4203729943692682
1763367249434381600,1.984381591796875,2.835285969766974,-2.1387246778309343,-1.804531301665306
1763367249444408300,1.994408203125,3.0022184071987867,-2.1779624632418155,-2.01075588504374
1763367249454436400,2.004436279296875,2.027103208732605,-1.9277292267888784,-2.36219791765213
1763367249464463400,2.01446337890625,2.510473585408926,-0.44806642358303067,-3.39011473197937
1763367249474490400,2.024490478515625,7.5378610184073445,4.178427840417624,-3.064878276990354
1763367249484517400,2.034517333984375,2.9792601409375665,4.645923771613836,-3.5938624038502573
1763367249494544400,2.04454443359375,-3.0989024194061754,2.8683149636656045,-3.700591716992855
1763367249504571400,2.0545712890625,-4.423658154016733,3.391759576576948,-2.3013030117064712
1763367249514598400,2.064598388671875,-3.4370693753778934,4.1537937498986715,-1.3023197386577725
1763367249524625400,2.07462548828125,-1.9680067305110394,2.0039912132143973,-0.8294014901518821
1763367249534652400,2.08465234375,-2.405756342741102,-0.9334253437280654,-0.7008852926149964
1763367249544679400,2.094679443359375,-2.586175599864125,-1.7333295212388038,-0.7915127812623978
1763367249554707200,2.104707275390625,-2.1653344523370266,-1.7734814988851546,-0.9479100884154439
1763367249564734500,2.114734375,-0.6281248845696449,-1.3172130641460418,-0.961086088591814
1763367249574761500,2.124761474609375,1.5466434588059783,-0.7501151874691248,-0.8742629606634378
1763367249584788200,2.134788330078125,3.003167086225748,-0.05886310785710811,-0.7937439013153315
1763367249594815500,2.1448154296875,3.0129966985836623,0.7094213580310345,-0.8661527194440364
1763367249604842500,2.154842529296875,2.9009856456458567,1.459149007487297,-0.7383467160031199
1763367249614869200,2.164869140625,1.207037409941852,0.9408300670266151,-1.0583417632073164
1763367249624896300,2.174896240234375,-0.2897273347124457,-0.004022679644823074,-1.4731323785237966
1763367249634923500,2.184923583984375,-0.9070505470216274,0.24694939247667788,-1.446648860745877
1763367249644950300,2.1949501953125,-1.9392159587040543,1.6320681181132792,-0.9366529274724423
1763367249654978600,2.204978515625,-2.200428854332864,2.9550170955628157,-0.011310060174018144
1763367249665005600,2.215005615234375,-2.0984102030992506,3.1917110514849423,0.32281098140776154
1763367249675032300,2.2250322265625,-3.342271907569468,2.8086528143852947,0.3445898286260664
1763367249685059300,2.235059326171875,-2.6130922483623027,3.588760404536128,0.9355413129687309
1763367249695086600,2.245086669921875,-1.0704746840715407,3.8987621732532975,1.2895625484153628
1763367249705113300,2.25511328125,1.2528598344400523,4.313930535840988,1.3436907367050648
1763367249715140400,2.265140380859375,3.6815842341840264,3.5113989324361086,-0.38559813084080813
1763367249725167600,2.275167724609375,-2.23142400431633,4.421396638825535,-0.7286481826789677
1763367249735194400,2.2851943359375,-5.048157833826542,3.6679350635379553,0.2939543047577143
1763367249745221400,2.295221435546875,-2.1548037059724328,0.3381669559717178,-0.22202421005666254
1763367249755249400,2.30524951171875,-1.5041916797846555,-1.3719529545933007,-0.6873233618609607
1763367249765276400,2.3152763671875,-1.6513199310719966,-2.251786408865452,-1.2233984698951244
1763367249775303400,2.325303466796875,-1.5020508683636784,-2.85377615070343,-1.7331886514633892
1763367249785330200,2.335330078125,-1.4602683669060468,-3.063493836894631,-1.6997157131895422
1763367249795357400,2.345357421875,-1.8082903619378805,-3.448056633338332,-0.8305681958436966
1763367249805384400,2.355384521484375,-1.7298083613753317,-3.699110538524389,-1.1334997339136899
1763367249815411500,2.365411376953125,-1.5681202543377875,-3.3117309310942886,-1.1996842707000672
1763367249825438500,2.3754384765625,-2.5246111240938305,-3.27051161647737,-0.9304770153164863
1763367249835465500,2.385465576171875,-2.05026634991616,-3.542230124029517,-0.7794422581098973
1763367249845492500,2.395492431640625,-1.5750032918497918,-3.3699715231388807,-0.4570446798086166
1763367249855520500,2.4055205078125,-1.1038652047589421,-3.1080279751479623,-0.13268880704641342
1763367249865547500,2.415547607421875,-0.5499918435752391,-2.8567274017244575,0.24028204354196786
1763367249875574300,2.42557421875,-0.011556290020048618,-2.6004420256257057,0.6937076560705899
1763367249885601300,2.435601318359375,0.5071729848071932,-2.2687790447205303,1.1827061017617582
1763367249895628500,2.445628662109375,1.432677180147171,-1.5920874053806067,1.3740116406887768
1763367249905655300,2.4556552734375,2.260173128938675,-0.6669768855333328,1.503634922684729
1763367249915682300,2.465682373046875,3.798305949030816,0.7056500227987765,1.6697111816786228
1763367249925709600,2.47570947265625,5.279159715586901,2.073130800414085,1.7206356054909526
1763367249935736300,2.485736328125,6.85551822143793,3.239009393754601,1.792155219694972
1763367249945763300,2.495763427734375,8.003657159948348,4.154463027462363,2.0110560370340944
1763367249955791400,2.505791259765625,8.127103506875038,4.613310372778773,2.5136685820579525
1763367249965818400,2.515818359375,5.622110398703813,4.396372087684274,2.8108523702561854
1763367249975845400,2.525845458984375,2.378665945111215,3.2192870406746863,2.678402048140764
1763367249985872400,2.535872314453125,0.29497078832387924,1.6084493421167134,2.094114551731944
1763367249995899400,2.5458994140625,-0.7039265600070357,-0.04824292964339256,1.3247570497848093
1763367250005926400,2.555926513671875,-0.16405308260321616,-1.6140379559040068,-0.09649608841985463
1763367250015953400,2.565953369140625,0.44356765085905786,-2.677769595456123,-1.4043098944492638
1763367250025980400,2.57598046875,0.11757511680573224,-2.7540385961443183,-2.5451146906793114
1763367250036007400,2.58600732421875,0.381992361433804,-1.4668243644207715,-3.9282308443218468
1763367250046034400,2.596034423828125,2.1044778325751423,1.3745774578779935,-4.030312039397657
1763367250056062500,2.6060625,3.9162782484605905,4.838581017410755,-2.890800643979013
1763367250066089500,2.61608935546875,5.166759663331509,8.089461466223002,-1.0426891437843442
1763367250076116200,2.6261162109375,3.7019758648276326,10.389566792577504,0.8594364168010652
1763367250086143500,2.6361435546875,0.6431237162590027,11.227978103137016,2.2521366836078465
1763367250096170500,2.64617041015625,0.11355711333602667,10.043768318814038,2.3270668369077145
1763367250106197200,2.656197265625,-0.3803112764790654,5.125492417919635,2.298883529474586
1763367250116224300,2.666224365234375,-3.9148976077571507,-3.4615286938518284,0.33421792608499523
1763367250126251500,2.67625146484375,-6.238017606735229,-9.40599180880189,-4.552262029837071
1763367250136278300,2.6862783203125,-6.311137788003682,-11.387178485012054,-8.379020166370273
1763367250146306600,2.696306640625,-6.37733255392313,-10.77479360588789,-10.101709635651112
1763367250156333600,2.70633349609375,-5.105460852760077,-8.744127736237644,-10.509165816426277
1763367250166360300,2.7163603515625,-0.7469207753419875,-5.282039654937386,-10.196582214522362
1763367250176387300,2.72638720703125,3.0671912301078437,0.5367699584305287,-5.715451530224085
1763367250186414600,2.73641455078125,0.34438714566081763,4.8928030214637515,0.40070992138534783
1763367250196441300,2.74644140625,-5.4155134748816485,6.011690146526694,3.3983588287115096
1763367250206468400,2.75646826171875,-7.632562916886806,5.325352142441273,3.2640994113475084
1763367250216495600,2.76649560546875,-6.756218473774195,4.303652302932739,1.9704224133506416
1763367250226522400,2.7765224609375,-4.52871894942522,3.430484151768684,0.9035605129487811
1763367250236549400,2.78654931640625,-1.5174445445895195,1.4985668256402014,-0.3400415176719427
1763367250246577400,2.796577392578125,0.22367694569975136,-0.5352613074332475,-0.894441094686836
1763367250256604400,2.8066044921875,-0.21994389665126798,-1.2994891914069653,-0.5197651937462389
1763367250266631400,2.81663134765625,-1.6158172405362128,-1.357951901769638,-0.06357552333176136
1763367250276658200,2.826658203125,-2.5078724629998206,-1.0195219109475613,0.2590411045476794
1763367250286685400,2.836685546875,-2.6831378444910046,-0.8710656259268522,0.18310674264132976
1763367250296712400,2.84671240234375,-1.8103098850667476,-1.370796185773611,-0.23679683177471159
1763367250306739500,2.856739501953125,-0.6338203197322786,-2.034876180821657,-0.6358109090276062
1763367250316766500,2.866766357421875,0.12327559346966445,-2.5604063678354025,-0.934417423505336
1763367250326793500,2.87679345703125,0.636677608859539,-3.0112948631018397,-0.9935486807793378
1763367250336820500,2.886820556640625,0.8169651293616741,-3.3267671721845864,-0.8082043883442879
1763367250346848500,2.8968486328125,0.6471030682187527,-3.696754915308952,-0.6459149544127285
1763367250356875500,2.90687548828125,0.08109068522360176,-4.04329573187232,-0.48652957135960456
1763367250366902300,2.91690234375,-0.5771334964683279,-4.319159084144235,-0.48346039304733274
1763367250376929300,2.92692919921875,-1.6320155111432075,-4.250904463085532,-0.6600823037140071
1763367250386956500,2.93695654296875,-2.8304087191194296,-4.0906928583413364,-0.7038616780772805
1763367250396983300,2.9469833984375,-3.9741865398108955,-4.074071393886208,-0.6948309610120952
1763367250407010300,2.95701025390625,-4.346778912475705,-3.9749627848803994,-0.43620968931168314
1763367250417037600,2.96703759765625,-4.505494725704193,-3.790682322284579,-0.22826325057670474
1763367250427064000,2.97706396484375,-4.28237102997303,-3.3244004430532454,-0.047242301233485336
1763367250437091800,2.987091796875,-3.3289135365635154,-0.8553197752624749,-0.20845957588888703
1763367250447119000,2.997119140625,-1.7959657178938389,6.099439157128334,-2.267251689022779
1763367250457145900,3.007145751953125,-0.44447745918035503,18.340351609516144,-1.3151277823045848
1763367250467172900,3.0171728515625,-1.0379565623044966,20.626391001117227,5.008285257643461
1763367250477200000,3.027199951171875,-0.6185669287599623,8.462741236630082,6.346766150745749
1763367250487227000,3.037226806640625,1.4372452187150715,0.619489742693305,2.84625978372395
1763367250497254000,3.04725390625,3.540086682260036,-2.7618156598865986,1.4570271930277348
1763367250507281000,3.057281005859375,3.545187804791331,-3.2611072437942026,1.7013124808616935
1763367250517308000,3.067307861328125,2.110580533364415,-2.500364863848686,1.0370978265833108
1763367250527336000,3.0773359375,1.5163275232583284,-2.0882722554445268,-0.24687735015377402
1763367250537362700,3.08736279296875,1.3730446953527629,-1.5871213074058292,-1.004404421314597
1763367250547390000,3.097389892578125,0.9884196473278105,-1.0879957277148962,-1.5691440444275735
1763367250557417000,3.1074169921875,0.6229553729772568,-1.0012579399824142,-1.970709121337533
1763367250567444000,3.11744384765625,0.16938187641054392,-0.7439975813716649,-1.7375440701939164
1763367250577471000,3.127470947265625,-0.20725670290514825,-0.7810083383828401,-1.4974651480086147
1763367250587498000,3.137498046875,-0.19437457110881803,-0.8073392959475517,-1.15373895047456
1763367250597525000,3.14752490234375,0.027521044132113454,-0.42941491460502146,-0.5529410853022709
1763367250607551700,3.1575517578125,0.46930882583707567,0.06670388448536396,0.07999510853923857
1763367250617580000,3.167580078125,1.027478422909975,0.1887730978399515,0.8259849597066641
1763367250627606800,3.177606689453125,1.810547493214905,0.35727439202368255,1.6349118171066044
1763367250637633800,3.1876337890625,2.895942098520696,0.7304507020562887,2.349326307249814
1763367250647661000,3.1976611328125,4.276682755203545,1.4139210417509078,3.088907095092535
1763367250657687800,3.207687744140625,5.3200867692589755,2.018119691810012,3.705537648962438
1763367250667714800,3.21771484375,5.681794759815931,2.367684824630618,4.039553038212657
1763367250677742000,3.2277421875,5.098785612779856,2.6037989348381756,4.207931582799554
1763367250687768800,3.237768798828125,3.797627611377835,2.3526743025034667,3.9211996305108068
1763367250697795800,3.2477958984375,2.597194129745662,2.3127537955254316,3.79041987195611
1763367250707823900,3.257823974609375,2.2169150019705293,1.3156383621752261,3.118090227217972
1763367250717851000,3.267850830078125,2.349097905321419,0.4886977091789245,2.3689317559517917
1763367250727878000,3.2778779296875,2.221925231347978,0.6706167033404111,2.1806778596803547
1763367250737905000,3.28790478515625,1.602194957897067,1.8761089296668767,2.056556974492967
1763367250747932000,3.297931884765625,0.7651520130813121,2.1049737993985413,1.2732374365583061
1763367250757959000,3.307958984375,-0.16203560530096292,1.8134207105636595,0.6097654173407703
1763367250767986000,3.31798583984375,-0.7649035912781953,1.4279589194536209,0.5573037009585649
1763367250778013000,3.328012939453125,-0.940455388495326,2.1475445286244152,1.575784213094413
1763367250788040000,3.3380400390625,-0.7145560905709862,3.276604672655463,2.289712527155876
1763367250798067700,3.348067626953125,-0.2808335418999195,5.321247045210003,2.811632706978917
1763367250808095000,3.358094970703125,0.5969027939625084,6.458655330869555,2.544185593135655
1763367250818122000,3.3681220703125,2.4201056244805454,5.578930013146996,0.792944567631185
1763367250828148700,3.378148681640625,4.347428316295146,3.1396728212118146,-1.7382282530657946
1763367250838176000,3.388176025390625,5.483431995853781,0.7756821749240159,-3.679273034632206
1763367250848203000,3.398203125,5.871739824044704,-1.0607318732142448,-4.686627245663106
1763367250858229800,3.408229736328125,5.954622689914703,-2.6269547694981097,-5.371726940125226
1763367250868256800,3.4182568359375,5.4200645623147485,-3.0333284157335756,-5.57217060201466
1763367250878284000,3.428283935546875,4.894739542484283,-1.478127264201641,-4.801075754880904
1763367250888311800,3.438311767578125,3.2809616988211867,1.0751473520576953,-3.1662878564149137
1763367250898338800,3.4483388671875,1.4072323577672243,3.4014702387303113,-2.3989770578645166
1763367250908366000,3.458365966796875,-1.109475153595209,5.3826463935464615,-2.0420628774553538
1763367250918392800,3.468392822265625,-2.6542612940967083,5.35105532349646,-2.719044147391617
1763367250928419800,3.478419921875,-3.345326326704025,4.244719052448868,-2.885749790330231
1763367250938447000,3.488447021484375,-3.1798785748720166,2.9021026669770476,-1.8043056762158869
1763367250948473900,3.498473876953125,-3.6094612472593783,1.644454136955738,-0.2833326287066564
1763367250958500900,3.5085009765625,-4.408099350357055,1.0245932228624821,0.5718079540640115
1763367250968528000,3.51852783203125,-5.613811356914043,0.6354758318543434,1.3464436886750162
1763367250978556000,3.528555908203125,-5.7373371988177295,0.23268881193399427,1.9035159920305011
1763367250988583000,3.5385830078125,-5.549909085845947,0.31380992882847786,2.5869436616271733
1763367250998609700,3.548609619140625,-4.379444626019895,0.6881114434987307,3.356620750917494
1763367251008637000,3.558636962890625,-2.0800886567279697,0.9920482130885123,3.575361993780732
1763367251018664000,3.568663818359375,-0.581415448103845,1.4085884485512972,3.448316161057353
1763367251028690700,3.578690673828125,-0.6259504631400108,1.4390022915154694,2.6789123357504603
1763367251038718000,3.588718017578125,-1.1748755542665719,1.317960667642951,1.5891709334120154
1763367251048745000,3.598744873046875,-2.058577082143724,0.865103502652049,0.7190953414358198
1763367251058772700,3.608772705078125,-3.1656244240701197,0.3536030100345611,0.21023937197774648
1763367251068800000,3.618800048828125,-4.597899453157186,-0.020285832181572913,-0.029415187315642834
1763367251078827000,3.628826904296875,-4.864375968402624,-0.41056700627207754,-0.23697134809140113
1763367251088853800,3.638853759765625,-4.4782744180843235,-0.7704957121968269,-0.33774935161415487
1763367251098881000,3.648881103515625,-4.203570172719657,-1.1539099231272936,-0.498345717892237
1763367251108908000,3.658907958984375,-3.85396938406378,-1.5000789837688207,-0.5050570155665278
1763367251118934800,3.668934814453125,-3.344138578224182,-1.5717232472658156,-0.2714748349893838
1763367251128961800,3.6789619140625,-3.66603273704797,-1.5038129096001385,-0.10599964716117828
1763367251138989000,3.688989013671875,-4.209514468076825,-1.588069401910901,-0.08804371923189609
1763367251149015800,3.699015869140625,-3.8310575872927903,-1.8872171836584806,-0.3736143726563081
1763367251159043800,3.7090439453125,-3.7684026859372852,-1.9462714301735162,-0.35168574170377104
1763367251169070800,3.71907080078125,-3.3426936401128766,-1.805706190663576,-0.14262078380025922
1763367251179097900,3.729097900390625,-2.7421342233389616,-2.1233494140446183,-0.2890553537350148
1763367251189124900,3.739124755859375,-2.509156073069572,-2.4682635061889884,-0.4516234584774822
1763367251199151900,3.74915185546875,-2.359533082357049,-2.8560931954741475,-0.6131828245688229
1763367251209179000,3.759178955078125,-2.1928023049771785,-3.2856554095953703,-0.7788121435128151
1763367251219206000,3.769205810546875,-2.5300118140935894,-3.679679861867428,-0.8502803928557783
1763367251229233000,3.77923291015625,-2.8987457577645777,-3.87622826988399,-0.7006774950832129
1763367251239261000,3.789260986328125,-3.059619041287899,-3.8922733957558866,-0.37576420763395724
1763367251249288000,3.799287841796875,-2.8876407186433672,-3.772974231636524,-0.04605380383497104
1763367251259315000,3.80931494140625,-2.70226340072155,-3.871327053838968,0.11968120397320016
1763367251269342000,3.819342041015625,-2.4555574616119262,-4.065424561572074,0.2815766153521836
1763367251279369000,3.829368896484375,-1.91958537556082,-3.9955806254953146,0.48988556725662197
1763367251289395700,3.839395751953125,-1.4602704127326607,-3.544347262313962,0.417752278133668
1763367251299423000,3.849423095703125,-1.101744851604104,-2.9502918206065893,0.20373879444468765
1763367251309450000,3.859449951171875,-0.129091951598227,-2.3117127620398996,-0.02233861825922504
1763367251319476700,3.869476806640625,1.628185723721981,-1.4488719436228275,0.022146548019535837
1763367251329505000,3.879505126953125,3.677305241690576,-0.2481248659968376,0.10740755946403369
1763367251339531800,3.88953173828125,5.629269622808694,1.3091834869474173,-0.06494135005855932
1763367251349558800,3.899558837890625,7.601693146848678,3.5497371386587617,-0.24010526220295578
1763367251359586000,3.9095859375,9.729481420123577,6.256978327792883,-0.06723455729596317
1763367251369613000,3.919613037109375,10.372462513041496,8.455107965272665,0.9181276752226054
1763367251379639800,3.929639892578125,9.11611220613718,8.464006141999363,2.190303035507351
1763367251389666800,3.939666748046875,6.741433577096462,6.200798759931326,2.370687805838883
1763367251399694000,3.949694091796875,4.173278494830429,3.5713977663248775,1.9369095814578234
1763367251409720800,3.959720947265625,2.0179656702920794,1.445261936432123,1.5602531742244958
1763367251419748900,3.969748779296875,0.7023992043092846,-0.3268751621067524,1.1671980784412472
1763367251429776000,3.97977587890625,-0.12250175955295561,-1.8568495179235933,0.5092207111172378
1763367251439803000,3.989802978515625,-1.035315400145948,-2.8343121562987563,-0.15059384503867476
1763367251449830000,3.999829833984375,-0.4841141807809472,-2.2052415153115987,-0.9218311328504234
1763367251459857000,4.00985693359375,1.236332770270109,-1.1648428205519914,-2.9113942269355055
1763367251469884000,4.0198837890625,4.447326614373922,1.769159544032812,-4.087285387985408
1763367251479911000,4.029910888671875,5.6260500762403005,5.239133994668721,-3.378902140830457
1763367251489937700,4.039937744140625,3.2225916351780293,8.48173293734789,-1.690200865869224
1763367251499966000,4.049966064453125,0.27618396252840755,10.993355692791939,-0.5105347893904895
1763367251509993000,4.059992919921875,-1.1586933580115437,10.619472111272811,-0.28341418777657673
1763367251520020000,4.07002001953125,-0.7705804678708315,7.1015855703830715,-0.7418053320243955
1763367251530047000,4.080046875,-0.10348697022050618,0.5046329449355602,-0.5882801097089424
1763367251540074000,4.090073974609375,-4.222827246375382,-6.684443861895799,-0.8947636046394706
1763367251550100700,4.100100830078125,-10.453671308219432,-11.256607985293865,-2.5114129120856523
1763367251560128000,4.1101279296875,-13.444430163770914,-13.506324017626046,-5.374208820068836
1763367251570155000,4.120155029296875,-10.87839426561594,-12.945255484241246,-7.181821721136569
1763367251580181800,4.130181640625,-2.1623338092163205,-11.02688620647192,-7.905234779641032
1763367251590210000,4.1402099609375,9.422042779892683,-6.464653694501519,-7.511774975514411
1763367251600236800,4.15023681640625,5.571273360913992,3.3376357722014185,-2.2321891434699297
1763367251610263800,4.160263916015625,-5.248621953982115,9.062817253801226,1.7508645934075115
1763367251620291000,4.170291015625,-9.663367318224907,9.365643431800603,4.003840212057531
1763367251630317800,4.18031787109375,-7.495243527430295,7.624422280529141,4.272605130501091
1763367251640344800,4.1903447265625,-4.768431668646634,4.661020802980661,2.447010582540929
1763367251650371800,4.200371826171875,-2.9874715044438838,1.203883622086048,0.6023026802446693
1763367251660398800,4.21039892578125,-1.433072609205544,-0.9793693487793207,-0.14317059970274568
1763367251670425900,4.22042578125,-0.862912130087614,-1.889478698849678,-0.2325553217474371
1763367251680454000,4.230453857421875,-1.7620365602850914,-1.9584686484456062,-0.3971077687075361
1763367251690481000,4.24048095703125,-2.9759374262556433,-1.6743553542226552,-0.5366904634535312
1763367251700508000,4.2505078125,-4.371972390443086,-0.9066904815375805,-0.6462916787706315
1763367251710535000,4.260534912109375,-4.797433014464378,0.048054129073023796,-0.47432588681411
1763367251720562000,4.27056201171875,-4.656429968059062,0.6880173354744911,0.014123669989756308
1763367251730589000,4.2805888671875,-2.9103169530928135,0.999402667504549,0.5294095857303589
1763367251740616000,4.290615966796875,-0.19319252171739934,0.8624842600643634,0.669231751788035
1763367251750643000,4.300642822265625,1.5650596977233886,0.20038696326613425,0.44797096385192126
1763367251760671000,4.3106708984375,1.9679273816645144,-0.4759212297141552,0.11862471719020977
1763367251770697700,4.32069775390625,1.3163047171294688,-0.9922422743558883,-0.0408778168360237
1763367251780725000,4.33072509765625,0.15967154305074363,-1.0233797554194926,0.114846130233258
1763367251790752000,4.340751953125,-1.1926175471842289,-0.6727578070223331,0.6054189856342971
1763367251800778800,4.35077880859375,-1.9401485633790492,0.2704156082600355,1.2591929829843342
1763367251810805800,4.3608056640625,-2.110861688393354,0.7050713461279868,1.376777306009829
1763367251820833000,4.3708330078125,-1.8293232130944728,0.5638403361856937,1.2736828422382473
1763367251830859800,4.38085986328125,-1.0725064821600914,0.3637193303793669,1.3087950721517205
1763367251840886800,4.39088671875,-0.10102759436964988,0.20133739585876465,1.3743205605074762
1763367251850915000,4.4009150390625,0.5831055931478738,-0.12679507283270358,1.416866593683511
1763367251860941800,4.41094189453125,0.5972615442723035,-0.36431028200984,1.5127198541551827
1763367251870968800,4.42096875,0.5460632719546556,-0.2812719333171844,1.4789336121484637
1763367251880996000,4.43099609375,0.5407891309440136,-0.07884732674360274,1.4185605381198227
1763367251891022800,4.44102294921875,0.6237889011919499,-0.08458499361276627,1.3300680156745015
1763367251901049900,4.4510498046875,1.101582354518771,-0.30591128453314304,0.8576093475043773
1763367251911076900,4.461076904296875,1.4307254615575073,-0.6767863318860531,0.2572019794870168
1763367251921104000,4.471103759765625,1.614259489700198,-1.009805403575301,-0.16646759639903902
1763367251931131000,4.481130859375,1.8135083888471126,-1.2377777083814143,-0.45090763835832476
1763367251941159000,4.491158935546875,1.8993214629501103,-1.388228382089734,-0.6535735063418746
1763367251951186000,4.50118603515625,1.7794406995505094,-1.5183786105692385,-0.8207504200540483
1763367251961213000,4.511212890625,1.7256459809988736,-1.522286723923683,-0.7706367281027138
1763367251971239700,4.52123974609375,1.8725655579715965,-1.520099443012476,-0.6226430921576916
1763367251981267000,4.531266845703125,1.770548952564597,-1.5568781448334454,-0.4377986390035599
1763367251991294000,4.5412939453125,1.2256611541301012,-1.5802900000810622,-0.3417481754593551
1763367252001321000,4.551321044921875,0.6477678888030349,-1.415530230513215,-0.32067415204215793
1763367252011348000,4.561347900390625,0.19942834736704826,-1.166203002989292,-0.24789712165556846
1763367252021376000,4.5713759765625,-0.40360710413157935,-0.8513082015335559,-0.05830445106104016
1763367252031402800,4.58140283203125,-1.0790865912027656,-0.3065916680127382,-0.033227439080178736
1763367252041430000,4.591429931640625,-0.8451220602445304,1.1973416530966758,0.552302385539934
1763367252051457000,4.60145703125,0.5356757334530353,2.541242817682028,1.698906734894216
1763367252061483800,4.61148388671875,2.327820577884465,2.8999580561637877,2.7452552779689428
1763367252071510800,4.6215107421875,4.097431518946588,2.3488135354220865,3.4860371121644973
1763367252081538000,4.6315380859375,5.4664656634837385,1.583380951833725,3.9661949565351007
1763367252091564800,4.641564697265625,5.751138929677009,1.6952368142098186,4.468458834251761
1763367252101591800,4.651591796875,5.45238277759552,1.6939812611907719,4.523080651277303
1763367252111619800,4.661619873046875,4.6686870998248455,1.7635411196291446,3.5872260345757003
1763367252121646800,4.671646728515625,3.7867514125764368,2.277308972656727,2.5506448522776366
1763367252131673900,4.681673828125,4.050977810807526,1.579531290668249,1.3004092288613318
1763367252141700900,4.691700927734375,4.314594552707672,0.7530506563991308,0.6536277938123792
1763367252151727900,4.701727783203125,3.6549978405535217,0.3583259469032287,0.5081752206522971
1763367252161755000,4.7117548828125,2.4056631114996967,0.16492928091585635,0.014616737036593257
1763367252171782100,4.7217822265625,1.1056564720898867,0.8147580477714538,-0.04592285266537219
1763367252181809000,4.731808837890625,0.19230799396783113,1.6419482916146515,0.7139794597268104
1763367252191837000,4.7418369140625,-0.12880056743621826,2.628597276008129,1.832090339720249
1763367252201864000,4.751864013671875,-0.18561083441674708,2.9637288098067045,2.729711964139342
1763367252211891000,4.761890869140625,-0.2804832671575248,3.7671389496117826,3.543122981216013
1763367252221918000,4.77191796875,-0.5060416426897049,4.529439080393314,3.7024768000870942
1763367252231944700,4.78194482421875,-0.2245866078905761,4.903872697010636,2.7607430622190234
1763367252241972000,4.791971923828125,1.134751633670926,3.9210423941224812,1.0066359066937118
1763367252251999000,4.8019990234375,1.8683472096242009,2.168177566808462,-1.1544765440341085
1763367252262025700,4.812025634765625,2.856767733734846,0.5894494092166424,-2.9073925900787114
1763367252272053000,4.822052978515625,4.607892731644213,-0.916331585586071,-4.209334435334801
1763367252282080800,4.832080810546875,7.4066475446105,-1.9534902755111454,-5.3887932257384055
1763367252292107800,4.842107666015625,7.683792753386497,-1.2514198647648096,-4.978126850745082
1763367252302135000,4.852135009765625,4.8718181011021136,1.2732090872466564,-2.9697935166731475
1763367252312162000,4.862162109375,2.117365078938007,3.7102456805229185,-2.011394182947278
1763367252322188800,4.872188720703125,-0.5198807464173063,5.633102917361259,-2.116098712264001
1763367252332215800,4.8822158203125,-2.7685224640488624,6.540950167718529,-2.243094860626757
1763367252342243000,4.8922431640625,-3.657832771718502,5.502296270799636,-2.3885420269593594
1763367252352269800,4.902269775390625,-4.005475996565819,3.95036259663105,-1.8687652889057993
1763367252362298000,4.912298095703125,-4.8627431065037845,2.4334815311431885,-0.9993880544573068
1763367252372324900,4.922324951171875,-5.44372834649682,1.2725316263765096,-0.2502064580438658
1763367252382352000,4.932351806640625,-5.639947668689489,0.8116735257595777,0.6428746368687599
1763367252392379000,4.94237890625,-5.702021555286645,0.6059393562465906,1.4100475613184273
1763367252402406000,4.952406005859375,-5.753106430357694,0.6630202568620442,2.14869136057198
1763367252412433000,4.962432861328125,-4.3052433715164655,0.8551122699916363,2.615047766344249
1763367252422460200,4.972460205078125,-1.6490648456215857,1.1928572011590004,2.862051227095723
1763367252432487000,4.98248681640625,-0.45678865922093387,1.3013479710161686,2.235175465804338
1763367252442514000,4.992513916015625,-0.9193374894037842,0.9766390470325946,1.032352312556654
1763367252452542000,5.0025419921875,-1.953140146899223,0.6628653585612774,0.1702688883781433
1763367252462569000,5.01256884765625,-3.0312098161444068,0.13651391829252243,-0.8155775474607944
1763367252472596000,5.022595947265625,-4.816739187958836,0.07535773106217383,-1.122655610750988
1763367252482623000,5.032623046875,-6.338597457337379,0.19629414099454878,-0.6050063862454146
1763367252492650000,5.04264990234375,-5.120359146684408,-0.2323737546354532,-0.09041815674565731
1763367252502677000,5.052677001953125,-3.334783305379748,-0.8171136709868907,0.48255518783591683
1763367252512704000,5.0627041015625,-2.849484883250296,-1.2651362554281949,0.8088077610649168
1763367252522731000,5.07273095703125,-3.3921725412920116,-1.432296656396985,1.087402364931628
1763367252532758000,5.082758056640625,-3.866806361544132,-1.5628355919331312,1.0768473609086124
1763367252542785800,5.092785888671875,-3.872342952883243,-1.5321125368893145,0.8822008409906178
1763367252552813000,5.10281298828125,-3.8453766200244424,-1.5724638365000485,0.5876251894641668
1763367252562840000,5.112840087890625,-3.845335118970275,-1.5251748465806245,0.468026969332993
1763367252572866800,5.12286669921875,-3.8109219772368665,-1.6304788030952215,0.31836605776287613
1763367252582894000,5.13289404296875,-3.577208498430252,-1.7323931171715259,-0.02639543763566762
1763367252592921000,5.142921142578125,-3.741722184282541,-1.9465859029501675,-0.24421229566298425
1763367252602947800,5.15294775390625,-3.7041876956582067,-2.4031840080350637,-0.4664175613749772
1763367252612974800,5.162974853515625,-3.519977083428204,-2.853319054585695,-0.6602716888062655
1763367252623002000,5.173002197265625,-3.8795541994363067,-3.320729061064124,-0.6289185922306031
1763367252633030000,5.18302978515625,-3.77935954875946,-3.8011353272378443,-0.5893078087888658
1763367252643057000,5.193056884765625,-3.921368557336926,-4.024204077911377,-0.4939097812714055
1763367252653084200,5.203084228515625,-3.9886721612811087,-3.800196000561118,-0.32430151222646236
1763367252663111000,5.21311083984375,-3.70032049883604,-3.7642899899214504,-0.20932046703454105
1763367252673138000,5.223137939453125,-2.977078705245256,-3.7876901547312736,0.22733353197854012
1763367252683165200,5.233165283203125,-1.9384832605153322,-3.861095582681894,0.4855969301519915
1763367252693192000,5.24319189453125,-1.415591605311632,-3.9346488946706053,0.3532488628346473
1763367252703219000,5.253218994140625,-0.7640896445468067,-3.45947409940958,0.43948651902526614
1763367252713246000,5.263245849609375,-0.2333694876745343,-2.8211335257738828,0.6440503295846283
1763367252723274000,5.27327392578125,0.35200521944910285,-1.8621715897291897,0.7856677084960043
1763367252733301000,5.283301025390625,1.6810244567230344,-0.5960252804756164,1.081114516833797
1763367252743328000,5.293327880859375,4.210206834255159,0.9109475544601678,1.6665131162896751
1763367252753355000,5.30335498046875,7.170977671039104,2.7245436215907333,2.202990667644888
1763367252763382000,5.313382080078125,9.212240338027478,4.910801034969091,1.9145764613576233
1763367252773408800,5.32340869140625,10.307156220394372,7.257243165084719,0.7916999013323336
1763367252783436000,5.33343603515625,10.17351347362399,8.857487573435902,0.23202992790015414
1763367252793463000,5.343463134765625,8.415533495253325,8.434196110147237,0.5793376919817179
1763367252803490000,5.353489990234375,6.149747787129878,5.663708483505249,1.0515717576157302
1763367252813518000,5.36351806640625,4.233877924960852,2.786978742715716,1.0539794763445853
1763367252823545000,5.373545166015625,2.555209091453254,0.49595630200505253,0.759936397324875
1763367252833571800,5.38357177734375,1.1627084388718008,-1.648262297067046,0.2509515042575076
1763367252843599000,5.39359912109375,0.3089537209689617,-3.470427455100417,-0.427216820038855
1763367252853626000,5.403626220703125,-0.08445172262191772,-4.281622841954231,-1.3777268618196248
1763367252863652900,5.41365283203125,0.3404661728248,-3.223147807756066,-2.892273639141023
1763367252873680000,5.423679931640625,1.3978066500350832,-0.5948042142480612,-4.809987375611066
1763367252883707100,5.43370703125,2.8510803357481955,2.8087352319717405,-5.363023409187793
1763367252893734000,5.44373388671875,2.8012998212739824,6.070585987609625,-3.970045202222466
1763367252903762200,5.45376220703125,0.7172115735158324,8.014795224556327,-2.687499839092791
1763367252913789000,5.463788818359375,1.4730816712498664,8.986056670203805,-1.574537866295129
1763367252923816000,5.47381591796875,1.6123440114676952,7.892067839553952,-0.24925061862375586
1763367252933843000,5.483843017578125,0.8283131103932857,4.263433689790964,0.4230397170173004
1763367252943870000,5.493869873046875,1.1948267476662993,0.3494540736615658,1.1958652969338
1763367252953897000,5.50389697265625,-2.0594787071585654,-3.5626328605890274,2.227813558734208
1763367252963924000,5.513924072265625,-8.829592435294389,-7.428135153797268,1.780729862578213
1763367252973951000,5.523950927734375,-13.345579328918456,-10.328789375531672,-1.303079617114365
1763367252983978000,5.53397802734375,-12.254921103996038,-11.342225244563817,-5.836017937800288
1763367252994006000,5.544006103515625,-4.772918458671867,-10.11323640731573,-8.333194234740734
1763367253004033000,5.554032958984375,6.763631380379199,-6.778715552264452,-8.97237301276624
1763367253014060000,5.56406005859375,7.870992902821302,0.46234980047941204,-6.50502837498784
1763367253024087000,5.574087158203125,-2.7934531994268297,6.755310711279511,-2.4289064783126113
1763367253034113800,5.58411376953125,-9.635182841747998,7.765736877101659,1.1830584223307667
1763367253044141000,5.59414111328125,-8.7666476110816,6.892995426917076,3.838538882958889
1763367253054168000,5.60416796875,-5.6032887938559055,4.610636769655347,2.9649057446315883
1763367253064194800,5.61419482421875,-3.432957556144893,1.7787386887609957,1.7252258558906615
1763367253074222000,5.62422216796875,-2.8131822745084762,-0.5730635070830583,0.6468703554414212
1763367253084249000,5.6342490234375,-2.097617737547308,-1.6613181779950856,0.2672079713251442
1763367253094276900,5.64427685546875,-2.206398576392233,-1.6812965516626834,0.6621520957253872
1763367253104304000,5.65430419921875,-3.368251275217533,-0.9928794032156467,1.389394941651076
1763367253114331000,5.664330810546875,-4.305875824201107,-0.16972469849884508,2.116551570598036
1763367253124358000,5.67435791015625,-3.403370519393682,0.5925853691548109,2.119561712199449
1763367253134385000,5.684385009765625,-1.3981728529989719,1.3306097213357686,1.795326689337939
1763367253144412200,5.694412109375,-0.40623109595961865,1.2518436431348323,1.5324766940265893
1763367253154439000,5.70443896484375,0.48495903410725294,0.671191288357973,1.254161710818857
1763367253164466000,5.7144658203125,1.0513129605490714,0.2488093411296606,0.8996014000594615
1763367253174493200,5.7244931640625,0.6948293535768986,-0.18077566934525965,0.31949360048808156
1763367253184520000,5.73452001953125,0.3657224868953228,-0.5753384662777186,-0.3057106473945081
1763367253194548000,5.7445478515625,-0.13530630520158446,-0.8250678448617458,-0.7447612592205405
1763367253204575000,5.754574951171875,-0.819711286264658,-0.7984978178441524,-0.861085718378052
1763367253214602000,5.76460205078125,-1.4076274945646523,-0.5370183802336455,-0.629953415171057
1763367253224629000,5.77462890625,-1.813039602291584,-0.5039338567554951,-0.40546745464336126
1763367253234656000,5.784656005859375,-2.2438661372601985,-0.5761626421421766,-0.24824240969559178
1763367253244683000,5.79468310546875,-1.8820546863287686,-0.33291444227099415,-0.0755856580665335
1763367253254710000,5.8047099609375,-0.46694359454307705,-0.04877192195355892,0.24587737933099268
1763367253264736800,5.81473681640625,0.9711077163904904,-0.0018967735320329665,0.9246741742566227
1763367253274764000,5.824763916015625,1.9975024357169866,-0.08228606902062892,1.4203127886146305
1763367253284792000,5.8347919921875,2.592212541940808,0.020782091265916822,1.7998960430800914
1763367253294818800,5.84481884765625,2.3015508489876986,0.10683306577801704,2.056761849415302
1763367253304846000,5.85484619140625,1.7214286555647849,0.09696633628010749,1.8558683979317545
1763367253314873000,5.864873046875,1.321426444057375,-0.11879179911911487,1.2087132341995834
1763367253324899800,5.87489990234375,1.435864578011632,-0.2589128019928932,0.730492056979984
1763367253334927000,5.884927001953125,1.2052337215207516,-0.6144260295629501,0.3587385097594932
1763367253344954000,5.8949541015625,0.7093517999261617,-0.9808762462109327,-0.04438360560042783
1763367253354980900,5.90498095703125,0.2865830453373492,-1.2633844433248043,-0.3626292335877195
1763367253365008000,5.9150078125,-0.008548048114776611,-1.460176596969366,-0.5791436307143419
1763367253375035100,5.92503515625,-0.04647197444811463,-1.7408406275212764,-1.1148747476164251
1763367253385063000,5.93506298828125,-0.8509216864340007,-2.0831074200272557,-1.8757604084901511
1763367253395090000,5.94508984375,-1.7898836215011775,-2.0786416727900505,-2.0615648657828567
1763367253405117000,5.955116943359375,-2.128233386693895,-1.2649965546965598,-1.4590920166030525
1763367253415144000,5.96514404296875,-1.3641020949624478,-0.5396288549929857,-1.1030062498420476
1763367253425171700,5.975171630859375,-0.7138759993523359,-0.3434393434166908,-0.6466806780882179
1763367253435198500,5.985198486328125,-0.04579714392647147,-0.09901450098156929,0.31000235323905945
1763367253445225700,5.995225830078125,1.2776327489078043,0.2887064672321081,1.3221332771524785
1763367253455252700,6.005252685546875,2.6669670464128252,1.180354862460494,2.426199703571945
1763367253465279500,6.015279541015625,4.417622965505719,1.6432991217017172,2.983369622083008
1763367253475306500,6.025306396484375,6.042435413402319,1.8094214117944238,3.31533655437082
1763367253485334500,6.03533447265625,7.433609201294184,1.9695038372009992,3.47589594963938
1763367253495361500,6.045361572265625,7.831824090993404,2.264552366936207,3.50452290918678
1763367253505388500,6.055388427734375,7.1995946937143795,2.174095266419649,3.088504359510541
1763367253515415600,6.06541552734375,5.809588780558109,2.2021084779828786,2.77932501309216
1763367253525442600,6.075442626953125,4.29077323987633,2.1093279029548166,2.611420223496854
1763367253535469600,6.085469482421875,2.997200871297717,2.058414877319336,2.304566251286119
1763367253545496600,6.09549658203125,1.8591420127749443,2.034035638344288,1.9678619152128696
1763367253555523600,6.105523681640625,1.0202303514778615,1.1738321826934814,1.5548729424908756
1763367253565550600,6.115550537109375,0.3705830786690116,0.6284586465686559,1.5289137408480047
1763367253575578600,6.12557861328125,-0.23545564629882573,0.46049335895776744,1.4407928281940519
1763367253585605600,6.135605712890625,-0.2795484705254435,1.2195564075142145,1.628101552569866
1763367253595632600,6.145632568359375,-0.48325873299539085,2.347351061654091,2.362097087626159
1763367253605659600,6.15565966796875,-0.5054867852859198,2.895675264278054,2.910608629515767
1763367253615686700,6.165686767578125,-0.12944514895007014,2.815284215223789,3.29285438118875
1763367253625713700,6.175713623046875,0.4269764354117214,2.7699580498099325,3.780516609840095
1763367253635740400,6.185740478515625,0.9032403410837053,3.2283412847459316,4.217020313662291
1763367253645767700,6.195767578125,1.0820829965397716,4.1970162210315465,4.652857954791188
1763367253655794700,6.205794677734375,1.8803750626787543,3.7170980306357144,4.2942441308572885
1763367253665821400,6.215821533203125,3.6818753260850903,1.9042361229985951,2.406077391389012
1763367253675849700,6.225849609375,5.1025119398266074,0.0578004470616579,-0.4166429651848972
1763367253685876500,6.23587646484375,5.562034407925606,-0.7300941437035798,-2.558083185584843
1763367253695903500,6.245903564453125,6.159967567849159,-1.529601430851221,-4.67807861302644
1763367253705930800,6.2559306640625,6.313401056760549,-1.5910352659791707,-6.7681035573571915
1763367253715957800,6.265957763671875,4.739551903381943,0.25884207484424115,-6.791593738538026
1763367253725984500,6.275984619140625,3.0004069738626478,3.3708383691012855,-4.487906462043523
1763367253736011500,6.286011474609375,1.375395204001665,5.966946164914965,-2.712361600887775
1763367253746038800,6.296038818359375,-0.7394446673076599,6.869728533098101,-1.620912225587666
1763367253756065500,6.3060654296875,-2.9619173764705655,5.209193614435196,-1.4136471932455896
1763367253766092500,6.316092529296875,-4.711439323097467,3.066039429724216,-0.9765829329311847
1763367253776120600,6.32612060546875,-6.723162591868639,2.3725492157965897,0.24085056414492426
1763367253786147600,6.336147705078125,-7.87908970003724,1.7634551949113606,1.082330249299109
1763367253796174600,6.346174560546875,-7.737513237658143,1.062501220974326,1.255075318532437
1763367253806201600,6.35620166015625,-7.238350833088159,0.5429787499427795,1.5110580584228037
1763367253816228600,6.366228515625,-6.376877795892954,0.6758405754685402,1.569540350268781
1763367253826255600,6.376255615234375,-4.573661376218498,1.4222960713863373,1.5184274181470274
1763367253836282400,6.386282470703125,-0.8292787405550479,1.9784984600394964,1.3484870310708879
1763367253846309600,6.3963095703125,3.101723614306748,2.383372807627916,1.434630798432976
1763367253856336600,6.406336669921875,3.016496231137216,2.478458152467012,1.1746829543039201
1763367253866363600,6.41636376953125,-1.461914672808349,2.4110639476299283,0.9539784485436975
1763367253876391700,6.4263916015625,-6.201255856049061,2.757072264751792,1.91205994849205
1763367253886418700,6.436418701171875,-5.466861384803057,2.121103680944443,1.6895858027108013
1763367253896445400,6.446445556640625,-3.8825159718513484,0.6738438486933708,0.8030377993613481
1763367253906472700,6.45647265625,-5.09411411383748,-0.6599076777994632,0.7445464474260807
1763367253916499700,6.466499755859375,-5.193433735245466,-1.393107386302948,0.8811857456639408
1763367253926526500,6.4765263671875,-4.687967846617102,-1.8346710038632152,0.7686301375206559
1763367253936553700,6.4865537109375,-5.056233588254451,-2.2555355322659016,0.5579660007921978
1763367253946580700,6.496580810546875,-5.030656079405546,-2.366348023068905,0.3147405607420951
1763367253956607500,6.506607421875,-5.199180754464864,-2.4848645123779773,0.08044281577412038
1763367253966634500,6.516634521484375,-5.201124289748073,-2.738858562669158,-0.12214549346119165
1763367253976662500,6.52666259765625,-5.041721663299203,-3.1037568737000227,-0.4046180347397923
1763367253986689500,6.536689453125,-4.953807817524671,-3.4399317790716886,-0.6317562268093228
1763367253996716500,6.546716552734375,-4.941131875824928,-3.8594402166903015,-0.6202433375395834
1763367254006743600,6.55674365234375,-4.472121448412537,-4.0586382624328134,-0.6113283192759379
1763367254016770600,6.5667705078125,-4.159709403683245,-4.104644226804376,-0.830295954773575
1763367254026797600,6.576797607421875,-4.207333616906404,-4.137430644118786,-0.9528248945944011
1763367254036824600,6.586824462890625,-4.2570951344192025,-4.169707358345389,-1.0412573574155568
1763367254046851600,6.5968515625,-3.9199578137561675,-4.387168206009268,-1.1902004030399025
1763367254056878600,6.606878662109375,-3.4982559577465056,-4.500788155448436,-1.1182288072846829
1763367254066905600,6.616905517578125,-3.0987638877183197,-4.265369041767716,-0.8067540434055029
1763367254076933600,6.62693359375,-2.5790745356872677,-3.9540088441789147,-0.6577579524196684
1763367254086960600,6.636960693359375,-1.7947887830689548,-3.784237383928895,-0.6135021927163005
1763367254096987600,6.646987548828125,-0.5536456899076699,-3.548988950639963,-0.33758732945285735
1763367254107014700,6.6570146484375,0.8902446659103035,-2.9850732111304996,-0.1374285854520276
1763367254117041700,6.667041748046875,3.149598002898693,-1.7485551474213599,0.09258238557484
1763367254127068400,6.677068359375,5.961570317095518,0.4389619106292724,0.29574999253544954
1763367254137095700,6.687095703125,8.430772565439343,2.8390251562952993,0.4148137769963592
1763367254147122700,6.697122802734375,10.464311944699286,5.6300663261443376,0.25214900694638487
1763367254157149400,6.7071494140625,11.412408787858485,8.87649505624473,0.5260878939617425
1763367254167176700,6.7171767578125,10.09332057749033,10.191204613137245,1.8148288237959145
1763367254177204700,6.727204833984375,7.5729685721457,7.915438778269291,2.716134689685702
1763367254187231500,6.7372314453125,4.855624214409292,4.3032185876905915,2.7763471663251518
1763367254197258800,6.7472587890625,2.553700440455973,1.771703383296728,2.4717083859458566
1763367254207285800,6.75728564453125,1.1964949731394647,0.032439211311936375,1.9365376794055102
1763367254217312500,6.7673125,1.0762135199844836,-1.2158476161241532,1.5804393454238772
1763367254227339500,6.777339599609375,0.11218933211416006,-2.205311657938361,1.1136000515054911
1763367254237366800,6.78736669921875,-0.44585342370867725,-1.602107279613614,0.09146613142862915
1763367254247393500,6.7973935546875,0.717199298556149,0.23134265802204607,-1.599436599099636
1763367254257420500,6.807420654296875,3.096210111582279,2.72313317027092,-2.231030036562681
1763367254267447800,6.81744775390625,4.089498680120706,4.257370444229245,-1.4575833656057715
1763367254277475600,6.8274755859375,2.9530674227997658,5.37725943981111,-1.130592760425806
1763367254287502600,6.837502685546875,2.147854617486894,7.328546067798137,-1.1145357979856432
1763367254297529600,6.847529541015625,1.9432269479110835,9.33719007525444,-0.7799015461847185
1763367254307556600,6.857556640625,3.274961289362609,9.205769680708647,-0.9540183421626687
1763367254317583600,6.86758349609375,2.2776921267554164,4.155072683793306,-0.23768442826420066
1763367254327610400,6.8776103515625,-9.125816438549757,-4.50893112989366,0.11422186085507273
1763367254337637600,6.8876376953125,-16.066547430109978,-10.275144294583797,-0.8717574806485324
1763367254347664600,6.89766455078125,-16.515640274131297,-13.307994571411609,-3.1692128039509058
1763367254357691600,6.907691650390625,-10.154578471529483,-14.288254147028923,-5.987597323277592
1763367254367718700,6.91771875,4.6187332746103404,-12.551219926053285,-8.72341578759849
1763367254377746700,6.92774658203125,7.734040593111515,-5.647974907800555,-7.731144287148117
1763367254387773400,6.9377734375,-1.4654074833601711,3.607273966348171,-2.224343252275139
1763367254397800700,6.94780078125,-7.851552873814105,7.304565472751856,1.3315375037051735
1763367254407827700,6.95782763671875,-10.324171652603148,8.027104671031235,3.568270866475999
1763367254417854500,6.9678544921875,-8.494272100925444,8.490863169264793,4.65930756932199
1763367254427881000,6.977880859375,-5.09431986554265,6.504792812666296,3.808303026910126
1763367254437908200,6.987908203125,-3.0885926223158835,1.7587971399724482,1.2808118173353373
1763367254447935200,6.997935302734375,-1.9610896445989607,-1.3680290591478348,-0.5524828201407567
1763367254457962000,7.0079619140625,-1.3921711283661424,-1.901200116303563,-0.9549969779364764
1763367254467989200,7.0179892578125,-2.337604889795929,-1.7713018167585133,-0.5015699771683663
1763367254478017000,7.02801708984375,-3.469831827294826,-1.4163181660205124,0.33503764497004446
1763367254488044000,7.0380439453125,-4.15551341329813,-0.7978121736675501,0.8795265802800655
1763367254498071300,7.0480712890625,-4.47028897228837,0.39756840848922725,1.33071420462355
1763367254508098000,7.05809814453125,-3.2003976312875744,1.363097447964549,1.5240411663755773
1763367254518125000,7.068125,-0.22129531126022337,1.7041823372095821,1.6304085143379865
1763367254528152300,7.07815234375,1.7432829061068593,1.1114549292355775,1.5793898363709449
1763367254538179000,7.088178955078125,2.8566566745758055,0.7254144614547491,0.8195630369003861
1763367254548206000,7.0982060546875,2.478269936418533,0.2034744078874588,-0.3427569141104817
1763367254558233000,7.108233154296875,1.1898573617558925,-0.558694205468893,-1.260365387764573
1763367254568261000,7.11826123046875,-0.007554433967545628,-1.320849374821782,-1.5336246950179337
1763367254578288000,7.1282880859375,-0.9162181152742356,-1.5974667603313921,-1.073287184209004
1763367254588315100,7.138315185546875,-1.7677075916588305,-1.1047188989788292,-0.6502167432598769
1763367254598342100,7.148342041015625,-2.2640227901041508,-0.26573358792364593,-0.299423456883803
1763367254608369200,7.158369140625,-2.5029344220757483,0.27872575596570964,0.19322949272692203
1763367254618396200,7.168396240234375,-1.9138626139998436,0.7099602872133255,0.9690397510100156
1763367254628423200,7.178423095703125,-0.9397650681436062,1.037655533531308,1.6459578195169566
1763367254638450200,7.1884501953125,-0.008943184912204742,1.1575327897995709,2.162355582656711
1763367254648477200,7.198477294921875,1.1106810222536325,0.9274415931433438,2.3566768161430955
1763367254658504000,7.20850390625,1.9144711012870073,0.40486733332574365,2.2637904426530002
1763367254668532200,7.2185322265625,2.12362589289844,-0.16317629976868628,2.219053475303948
1763367254678559000,7.22855908203125,2.0102198784708976,-0.6220505330920219,2.1395564524799586
1763367254688586000,7.2385859375,1.9652911879420278,-0.5832669211894274,2.084080648973584
1763367254698613200,7.24861328125,2.0099089128255843,-0.6536456947952508,1.6081540124319493
1763367254708640000,7.258639892578125,2.0846897207826376,-0.7653799766182899,1.1217913220718503
1763367254718667000,7.2686669921875,1.8408406324088573,-0.8840747451037168,0.9302896760508418
1763367254728694300,7.2786943359375,1.4434639470994473,-1.0543681834012268,0.6054826254550367
1763367254738721000,7.288720947265625,1.3894710756272077,-0.9793477214694023,0.3236553232774138
1763367254748748000,7.298748046875,1.4443890991203485,-0.9853612826704978,0.02780358740054071
1763367254758776000,7.308776123046875,1.452694132259488,-1.03308281878829,-0.28080088173933326
1763367254768803000,7.318802978515625,1.316166769963503,-1.3268629360228776,-0.5518991385012865
1763367254778830000,7.328830078125,1.3117432544328271,-1.7099539063483475,-0.800117893326655
1763367254788857300,7.338857421875,0.9748550862252712,-2.115713220077753,-1.2139073687765747
1763367254798884000,7.348884033203125,0.5192477457433938,-2.1671786188989874,-1.3989628343328833
1763367254808911000,7.3589111328125,-0.44124432247802614,-2.031709825745225,-1.5516421438761054
1763367254818938000,7.368938232421875,-1.6830612232476472,-1.7757997126996516,-1.3431515152618287
1763367254828965000,7.378965087890625,-2.161253758894652,-1.3302432261109352,-0.7051905885934829
1763367254838992100,7.3889921875,-1.5185948836684227,-0.7359072138965129,-0.0161150493029505
1763367254849019100,7.39901904296875,-0.6827880565188825,0.36517186727523804,0.9789414787560701
1763367254859047200,7.409047119140625,0.5214975704967976,1.342358611318469,1.9704861262366173
1763367254869074200,7.41907421875,2.018190418958664,1.8675638041615485,2.633949742951989
1763367254879101000,7.429100830078125,3.347607131117582,2.1915572733521462,3.1019512855827807
1763367254889128200,7.439128173828125,5.00028724462688,2.9574101281791925,3.6994963229715823
1763367254899155200,7.4491552734375,6.269238089907169,2.830793919044733,3.9729485224485397
1763367254909182000,7.459181884765625,6.653749448424577,2.785315777939558,4.366505064947903
1763367254919209000,7.469208984375,6.373093601179122,2.0430577337116,4.231348698744178
1763367254929236200,7.479236328125,5.6429369136333465,1.6222060647904872,3.8702918655723333
1763367254939264000,7.489263916015625,4.649974216048419,1.12223000575006,3.184420017693937
1763367254949291000,7.499291015625,3.4249364545136687,1.3877970049351454,2.8505136417761445
1763367254959318300,7.509318359375,2.0082021089076996,1.8609476008921861,3.0455180352210998
1763367254969345000,7.519344970703125,0.8291594980895519,2.116183175677061,3.180517457297444
1763367254979372000,7.5293720703125,0.2427875966221094,2.561533326038718,3.139694740782678
1763367254989399300,7.5393994140625,-0.0060718672595918175,3.1500393169254064,3.3497403437539934
1763367254999426000,7.549426025390625,-0.26560411632508035,3.9350329255521297,3.5878245849907398
1763367255009453000,7.559453125,-0.5531726655684411,4.7257729688763614,3.288059255866706
1763367255019480000,7.56947998046875,-0.2731500016599893,5.19726819884181,2.2109768440932034
1763367255029507000,7.579507080078125,1.2711167911425232,4.316162824937701,0.3765574038382619
1763367255039535000,7.58953515625,2.5695856995910407,2.7849206411421297,-1.4280328614726663
1763367255049562000,7.59956201171875,2.8919068516552446,1.6751298457264898,-2.647053262414038
1763367255059589000,7.609589111328125,3.428078259670734,0.5240712203770875,-3.554503037886321
1763367255069616000,7.6196162109375,4.7809617721349,-0.7944593561083078,-4.108543280069529
1763367255079643100,7.62964306640625,6.836583803865313,-1.7890835571646688,-4.978944012346863
1763367255089670100,7.639670166015625,7.0018930240094654,-0.8693804493188858,-4.369984431496262
1763367255099697200,7.649697265625,4.729285945433378,1.812763707959652,-2.6966511137977243
1763367255109724200,7.65972412109375,2.1350690779328345,4.2777106369465585,-1.828847412276268
1763367255119751200,7.669751220703125,-0.2673661575615406,6.1396262060880655,-1.4739866572655738
1763367255129779200,7.679779296875,-1.7448446024656294,6.209008369871974,-1.70863434818238
1763367255139806000,7.689805908203125,-2.4586533818006515,5.036705880963802,-1.6124549244962632
1763367255149833200,7.699833251953125,-2.764903104507923,3.687728143766522,-0.7748486467093229
1763367255159860200,7.709860107421875,-3.6948797690868376,2.418291560795903,0.47040582729354496
1763367255169887000,7.719886962890625,-4.7520577492117875,1.5558289280414581,1.5836688288643954
1763367255179914000,7.7299140625,-5.7312616782963275,0.4927449387431144,1.6353826494887471
1763367255189941200,7.739941162109375,-7.096489708548784,0.14038988294303417,1.8202520178884267
1763367255199968000,7.749968017578125,-7.615145333617925,1.034897174733877,2.134074806198478
1763367255209995000,7.7599951171875,-6.070776541745662,1.7606611802786587,2.0683073257803914
1763367255220023000,7.77002294921875,-2.8261475545436143,1.9692156679093837,1.9314080614320932
1763367255230050000,7.780050048828125,-0.016963117499649523,2.474892568939924,1.964609489288181
1763367255240077000,7.7900771484375,0.3809896141320467,2.9278064325541258,2.6035803236514328
1763367255250104000,7.80010400390625,-0.5385831453323364,2.484067224520445,2.603439746136963
1763367255260131000,7.810131103515625,-1.6465750746324657,1.3895254361629485,1.9463634923711417
1763367255270158000,7.820157958984375,-2.913809471383691,0.33696167183518405,1.0149357522010802
1763367255280185300,7.830185302734375,-3.858790520609915,-0.07509411168992519,0.5046577871158718
1763367255290212000,7.840212158203125,-4.41620433087945,-0.6340151116520166,0.03169423816353083
1763367255300239000,7.850239013671875,-4.290224081560969,-1.3586603422999382,-0.9557785567682235
1763367255310267100,7.86026708984375,-4.782282791605591,-2.0140175171881913,-1.236525077971816
1763367255320294100,7.870294189453125,-5.395427549186349,-3.162532303273678,-1.5961419414684175
1763367255330321200,7.880321044921875,-8.863641419890522,-2.75256267837286,-0.619957944726944
1763367255340348000,7.890347900390625,-6.93200349522531,-1.6985492997586726,0.7385635736241937
1763367255350375200,7.900375244140625,-4.334626702389121,-2.0063690482616425,0.8167700451809913
1763367255360402200,7.910402099609375,-4.484540200480819,-2.7042151193112134,0.8385763649281114
1763367255370429000,7.920428955078125,-4.643880867609381,-3.21437530323565,0.06959719477407633
1763367255380456200,7.930456298828125,-4.715346267408132,-3.5240269433408975,-0.6207374777320772
1763367255390483200,7.940483154296875,-4.755548806197941,-3.802925133264065,-0.7898695441000163
1763367255400511000,7.950510986328125,-3.9995571279108524,-4.040342727285624,-0.878633650028333
1763367255410538200,7.960538330078125,-3.5966409286528824,-4.221828590726852,-0.9300122473489493
1763367255420565200,7.970565185546875,-3.8149282902687784,-4.358102270522713,-0.7441922271609306
1763367255430592000,7.980592041015625,-4.193303630249202,-4.389733088061213,-0.7340725458152592
1763367255440619000,7.990618896484375,-4.2643104726254935,-4.22966644474566,-0.6100385351937264
1763367255450646300,8.000646240234374,-4.339335610732436,-3.903730024793744,-0.3297256561670452
1763367255460673000,8.010673095703124,-4.305345078325272,-3.665348554176092,0.1405149706274271
1763367255470700000,8.020699951171874,-3.5320331396639344,-3.794343182879686,0.3527824143666774
1763367255480727300,8.030727294921874,-2.242041259920597,-3.7287639185100794,0.2405760580524802
1763367255490755000,8.040755126953124,-0.7677157260894775,-3.3776585705101487,-0.021447934763506055
1763367255500782000,8.050781982421874,1.1600044406101107,-2.989191167843342,-0.4078633002713322
1763367255510809000,8.06080908203125,4.131687132030725,-2.116007819110155,-0.8541900405801832
1763367255520836000,8.070836181640624,6.631810003817081,-0.6071902330905199,-1.4640285962224007
1763367255530863000,8.080863037109374,8.788581210470198,1.924452981597185,-1.9988987123809754
1763367255540890000,8.09089013671875,11.532353848665952,6.082287531319261,-0.9249721342898904
1763367255550917000,8.100917236328126,12.369191626298427,10.608325278836489,1.6418772722050547
1763367255560944000,8.110944091796876,10.42252915098071,11.939465161526202,3.915604002460837
1763367255570971100,8.12097119140625,7.094353865563869,8.619942553642392,3.7386388313144443
1763367255580999200,8.130999267578124,3.7649145515605804,4.72443207566142,2.415251754708588
1763367255591026200,8.141026123046874,1.2165838214442133,1.9922785635888576,1.455940859095752
1763367255601053000,8.151052978515626,-0.26223288632631303,-0.013725158491730689,0.8809232222702353
1763367255611080200,8.161080078125,-0.42867227954417464,-1.31098732149899,0.31366233705133195
1763367255621107200,8.171107177734376,0.7675961913630366,-1.5791180336922406,-0.618490210261941
1763367255631134000,8.181134033203126,4.4873438597247,-0.41291093904972076,-1.9605065840139984
1763367255641161200,8.1911611328125,8.11820123849511,2.1487883912056684,-2.57016496078372
1763367255651188200,8.201188232421876,5.471996994125843,4.914053314763307,-2.2733219488471743
1763367255661215000,8.211215087890626,-0.800820415572822,8.245534071466325,-1.9816680299863219
1763367255671242000,8.221241943359376,-1.081849187783897,11.791702703988552,-1.0421747645214199
1763367255681270000,8.23127001953125,-0.22581337320655584,11.676423296904563,-0.14476678285300731
1763367255691297000,8.241297119140626,0.09282295286506415,6.597223259082436,-0.012654752781242132
1763367255701324300,8.25132421875,0.620653525775671,-1.2047960607558488,0.5690848127104342
1763367255711351000,8.26135107421875,-6.165062260639667,-8.379189093196391,1.281365213434398
1763367255721378000,8.2713779296875,-12.609271133005619,-11.852799269986152,0.9390489557635039
1763367255731405000,8.281405029296875,-13.948447022634744,-13.644945721852778,-1.7933464753061532
1763367255741432000,8.29143212890625,-11.770113972514867,-13.301656016039848,-4.675833172187209
1763367255751459000,8.301458984375,-3.2726109268441794,-10.56434468281269,-7.5953522533893585
1763367255761486000,8.311486083984375,5.474607468885183,-5.034285960340499,-9.673201314496993
1763367255771514000,8.32151416015625,2.137529915088415,4.390292475509643,-8.223625021997094
1763367255781541000,8.331541015625,-5.609213507729768,10.797858839654921,-3.751138539664447
1763367255791568100,8.341568115234375,-9.027230976635217,10.970341896951197,0.9491126691382378
1763367255801595100,8.35159521484375,-6.691970165747404,8.109863618260622,2.0793870843298734
1763367255811622100,8.3616220703125,-3.9387127831086515,3.8074884956568478,0.8675248115148395
1763367255821649200,8.371649169921875,-3.6378631658792493,-0.54922553537786,-0.7535707347504794
1763367255831676000,8.381676025390625,-3.257060014230013,-2.5577707586348057,-1.4083920491963624
1763367255841703200,8.391703125,-3.065910834908485,-2.857166962185502,-0.5030269345110282
1763367255851730200,8.401730224609375,-4.342090462398529,-2.185251451206207,1.0305337188273667
1763367255861757000,8.4117568359375,-5.1963925850510595,-0.3044797904253006,2.9544767050758
1763367255871785200,8.42178515625,-3.4134000382378695,1.4592594821244478,4.20014282861948
1763367255881812000,8.43181201171875,-1.0825170040428638,2.444135027104616,4.39915616544485
1763367255891839000,8.4418388671875,0.14850100094527005,2.460171969670057,3.727380939719081
1763367255901866200,8.4518662109375,1.55059848004207,2.1709815183132886,2.7679309278964994
1763367255911893200,8.461893310546875,1.3021953816257417,1.4949895516753196,1.8100350136481225
1763367255921920000,8.471919921875,0.8356745790719986,0.37050212238728997,0.8295829111333936
1763367255931947000,8.481947021484375,0.48304056020006536,-0.9202490512907504,0.2826377052450552
1763367255941974300,8.491974365234375,0.16024433797001839,-1.5166951875269412,0.026786409714631736
1763367255952001000,8.5020009765625,-0.5801917515277862,-1.7719699252784251,-0.3382309976512566
1763367255962028000,8.512028076171875,-0.9757084151189773,-1.790114653778076,-0.37932252117004245
1763367255972056000,8.52205615234375,-1.0203097733896225,-1.2991653662800788,-0.09094484750088304
1763367255982083000,8.5320830078125,-0.8015209650576114,-0.6650035396337509,0.41005328459627927
1763367255992110000,8.542110107421875,-0.47517428380437193,-0.34777591131627555,0.9724173376843332
1763367256002137000,8.55213720703125,-0.06587559870136901,0.11119476811885833,1.4681993060357867
1763367256012164000,8.5621640625,0.40434418623447416,0.5256634580045938,1.8495064616844057
1763367256022191000,8.572191162109375,0.7630477342784404,0.6849743145167827,2.2131259849511085
1763367256032218000,8.582218017578125,0.5061415959328412,0.6046271046042442,2.4539444734573364
1763367256042245000,8.5922451171875,0.7104103690683842,0.32368542615473267,2.2884240947805345
1763367256052272000,8.602272216796875,0.8439531625956297,-0.2636830851346254,1.7363764877192676
1763367256062299100,8.612299072265625,0.5763759926319122,-0.6527420239537954,1.261905895204842
1763367256072327200,8.6223271484375,0.5399708733636885,-0.8529103760331869,0.7410683229867369
1763367256082354200,8.632354248046875,0.7437333774775267,-0.9379887061208486,0.1288297935307026
1763367256092381000,8.642380859375,0.8784587318528443,-0.848199129602313,-0.24483071982227264
1763367256102408200,8.652408203125,0.805000039345026,-0.7925210815221071,-0.4819919279299676
1763367256112435200,8.662435302734375,1.1078519363075494,-0.9321388110488653,-0.8204586705658584
1763367256122462000,8.6724619140625,1.6463310367435215,-1.077374964979291,-0.8185558326192199
1763367256132489200,8.6824892578125,2.167999726023525,-1.1943524081528185,-0.6866903977196663
1763367256142516200,8.69251611328125,2.37003051097393,-1.2872592399090528,-0.48770277985744176
1763367256152543000,8.70254296875,2.0944512363404035,-1.3246160338789223,-0.06791077605709434
1763367256162570000,8.712570068359375,1.3449452668108046,-1.3285323305398224,0.20045593684911728
1763367256172598000,8.722597900390625,0.38523148948550223,-1.1978344050496816,0.3983464071244001
1763367256182625000,8.732625,-0.2874170119434595,-0.9158686442494391,0.6544021391857415
1763367256192652300,8.74265234375,-0.6506644870273769,-0.806534993827343,0.7240940265059471
1763367256202679000,8.752678955078125,-0.46727717387899753,-0.7615215476244688,0.6165063429683446
1763367256212706000,8.7627060546875,0.3069369743190706,-0.579686724615097,0.54094731718041
1763367256222733000,8.772733154296875,0.5728343745023012,-0.19023557160794735,0.9431088986787944
1763367256232760000,8.782760009765624,0.33110768510997296,0.232308872705698,1.6891788293451069
1763367256242787000,8.792787109375,0.12893003903478384,0.914082345354557,2.557570559887588
1763367256252814000,8.80281396484375,0.6970436686255037,1.4886761307448149,3.109422059854865
1763367256262841300,8.81284130859375,3.0283710855871435,1.2635691522419452,2.8133380495920775
1763367256272869000,8.822869140625,4.122638148656487,1.5179735368996858,2.928199815785885
1763367256282896100,8.832896240234374,4.022087816409766,1.6400275526851416,2.5943302647471427
1763367256292923100,8.842923095703124,4.251332625369727,2.4241169059485195,1.9389523393318056
1763367256302950100,8.8529501953125,4.401189132577181,2.4412433973163363,1.26933224581331
1763367256312977200,8.86297705078125,4.492679960055649,1.8657512017816305,0.5254448468178511
1763367256323004000,8.87300390625,4.365045513789355,1.4341390693932772,0.005220145801082253
1763367256333031200,8.88303125,4.139808771426975,1.3734896626412867,0.3199751003947109
1763367256343058200,8.89305810546875,3.957609791280329,1.2227806302577255,0.9926639338340609
1763367256353085000,8.9030849609375,2.965115003468096,1.7345622779041527,1.9033011802360413
1763367256363112200,8.9131123046875,1.3143502220608294,2.2558768930494786,2.864391652742028
1763367256373140200,8.92314013671875,0.16908420863822102,2.702895268884301,3.6827088542997837
1763367256383167000,8.9331669921875,-0.22779636371731757,3.1281887196451423,4.087825778472423
1763367256393194200,8.9431943359375,-0.6203203482985497,3.646335226148367,3.6419752773731946
1763367256403221200,8.95322119140625,-0.7329011639483273,4.004669940879941,2.572540165482461
1763367256413248000,8.963248046875,-0.24472630959972738,3.054534869891405,0.256676311645098
1763367256423275000,8.97327490234375,0.3251356249630451,2.201943642809987,-1.7732599650889633
1763367256433302000,8.983302001953126,1.0308937843114137,1.6073352433949708,-2.5484891355484725
1763367256443328800,8.993328857421876,2.732761414837837,0.7812725422769784,-2.817387909504771
1763367256453355800,9.003355712890626,6.268374166554212,-0.584936900228262,-2.6480498722359536
1763367256463383000,9.013383056640626,11.95414835139513,-1.4337187981545925,-1.975500155006349
1763367256473410800,9.023410888671876,9.983729737436772,-0.3940460795819759,-1.0855578330434859
1763367256483438000,9.03343798828125,3.6063334706276655,1.7126543974786996,-0.060389477174170314
1763367256493464800,9.04346484375,-0.44758006483819335,3.4589170500487088,0.11922756018787621
1763367256503491800,9.053491943359376,-2.354506194105744,4.648003500497341,-0.662751230662316
1763367256513518800,9.063518798828126,-3.5422646108210083,4.825384851229191,-1.568810428559035
1763367256523545900,9.0735458984375,-4.277809421145916,4.087713550269603,-2.536965871015191
1763367256533572900,9.08357275390625,-3.8512358674466607,3.4009780712991953,-2.783375457526743
1763367256543599900,9.093599853515625,-3.3584476740837097,2.5049065989315507,-1.6363297210805117
1763367256553627100,9.103627197265626,-3.5604432415902614,1.0875988373517989,-0.8051371827933936
1763367256563654000,9.11365380859375,-4.161270953911543,0.4624696274667978,-0.169859138533473
1763367256573682000,9.123681884765626,-5.433450113588571,0.954914706480503,0.539787698816508
1763367256583709000,9.133708984375,-6.647504416555166,1.614970268318057,1.3258733404636383
1763367256593736000,9.14373583984375,-6.176963126313686,2.0091659855037927,1.946031191676855
1763367256603763000,9.153762939453125,-1.106636715298891,1.9439619841873645,1.5628673022456465
1763367256613789700,9.163789794921875,2.7417779572471974,1.6096014347612857,0.8338510169066489
1763367256623817000,9.17381689453125,1.0048223544657229,1.8961276353448628,0.9591412381343543
1763367256633844000,9.183843994140625,-1.5347674353122711,1.7688374724715947,0.9973979766186326
1763367256643870700,9.19387060546875,-3.233756295531988,1.1306219865202902,0.7120099132195115
1763367256653898000,9.20389794921875,-4.166996930342912,0.4439192407757044,0.41972127665169534
1763367256663925000,9.213925048828125,-4.703282027865946,-0.19549568409323692,0.18600597121417523
1763367256673951700,9.22395166015625,-4.814140111376345,-0.651664750111103,0.09628007104899734
1763367256683980000,9.23397998046875,-4.7282107174173,-1.2008557986974715,-0.043706528322771186
1763367256694007000,9.244007080078125,-5.05168600795269,-1.7159259664952753,0.12798501326963305
1763367256704033800,9.25403369140625,-4.675292781700193,-1.7718986136078834,0.38208435056619344
1763367256714060800,9.264060791015625,-4.449451351442933,-1.963112674859166,0.4060816044863313
1763367256724088000,9.274088134765625,-4.4256648176640265,-2.097881795310974,0.39401111786644905
1763367256734114800,9.28411474609375,-4.128650540813803,-2.1549387305289507,0.34361882816944267
1763367256744141800,9.294141845703125,-4.015952382394671,-2.308592584192753,0.21913846201989798
1763367256754169000,9.304169189453125,-3.945067997354269,-2.5508809991210697,-0.009344605319947004
1763367256764195800,9.31419580078125,-3.970547891047597,-2.7304695045083758,-0.2615805233648047
1763367256774222800,9.324222900390625,-3.9688749893993136,-3.161362674972415,-0.6429895684853196
1763367256784251000,9.3342509765625,-4.008660471820831,-3.516153433486819,-0.7384693194694817
1763367256794278000,9.34427783203125,-3.870367853417992,-3.6063293789744373,-0.7372131088633089
1763367256804305000,9.354304931640625,-3.672416592866182,-3.843751649171114,-0.7150175706028938
1763367256814332000,9.364331787109375,-3.468444464589655,-4.007527668398619,-0.7614253937736153
1763367256824359000,9.37435888671875,-3.3968870025932785,-4.012499611592292,-0.6497796670168637
1763367256834386000,9.384385986328125,-3.267718186366558,-3.983197529262304,-0.4121126282788813
1763367256844413000,9.394412841796875,-2.9356597764030097,-3.6539836950749156,0.04586019922532141
1763367256854440000,9.40443994140625,-2.357721941281855,-3.292504252576828,0.4737092892857268
1763367256864467000,9.414467041015625,-1.2917258639290927,-3.0295225937098262,0.7189144319109618
1763367256874494000,9.424493896484375,0.25871727942079303,-2.725764687818289,0.6880984378866851
1763367256884521000,9.43452099609375,1.8852792013332247,-2.309925878623128,0.5049551626272499
1763367256894549000,9.444549072265625,4.398832048057019,-1.4724106401205062,0.4700774355893954
1763367256904575700,9.45457568359375,8.394647359091042,0.2533919927448034,0.34388708718419075
1763367256914603000,9.46460302734375,11.519907039546966,2.870048071068525,0.20667652839701622
1763367256924630000,9.474630126953125,11.434282766014336,6.368410411798954,-0.059891135730594396
1763367256934656800,9.48465673828125,9.513159221100807,9.392238593259453,-0.11340521070994436
1763367256944683800,9.494683837890625,7.648895627528429,9.50616074051559,0.3005354367136955
1763367256954711000,9.5047109375,5.602334854131937,6.392403281804919,0.8764788100820035
1763367256964737800,9.51473779296875,4.118450049316883,3.271231747445464,1.2646442341275512
1763367256974764800,9.524764892578125,2.8125635580882427,1.761430995607376,1.1379529869955032
1763367256984792000,9.5347919921875,1.161915827189386,1.197208966627717,0.7802693565838038
1763367256994818800,9.54481884765625,0.7670385574802756,0.7432096458643674,0.0521667885562405
1763367257004846800,9.554846923828125,3.1476985990181565,0.9467729010790585,-0.842662319067493
1763367257014873900,9.564873779296875,5.117143107247352,0.8135860813826322,-0.9991488388739526
1763367257024900900,9.57490087890625,3.47551338006258,1.2665139735221862,-0.44461873081456865
1763367257034927900,9.584927978515625,-1.1660022197201847,2.817663803836703,-1.6305482150696218
1763367257044955100,9.594955078125,-5.435389557218551,4.587207963272929,-3.004153174653649
1763367257054982000,9.60498193359375,-2.7914576416954398,5.503339642372727,-2.666854818210006
1763367257065009000,9.6150087890625,0.5397840455546975,3.848417302894592,-1.3240262512922287
1763367257075036000,9.625035888671874,1.6284236241310834,-0.8515735744714736,0.24309863533265888
1763367257085063000,9.63506298828125,-2.8401453924968836,-5.636895879903435,0.7859676412906498
1763367257095090000,9.64508984375,-9.536777412575482,-8.196181134754418,-0.3851805264832452
1763367257105117700,9.65511767578125,-13.211062137401104,-9.294642142382264,-3.515786061479151
1763367257115145000,9.66514501953125,-9.931811334151028,-9.27887174179852,-6.974456735551357
1763367257125172000,9.675171875,0.7772451864570379,-7.004588254442811,-8.57973679998219
1763367257135198700,9.68519873046875,7.203314591020345,-1.2868436448454856,-6.93812051680088
1763367257145226000,9.69522607421875,0.35465193456560373,4.681321248209477,-1.8782173001229763
1763367257155253000,9.7052529296875,-5.724944165712595,5.242948584520817,0.9723654613666236
1763367257165279700,9.71527978515625,-6.954903309297562,4.2847856898993255,2.1731452722184357
1763367257175306800,9.725306640625,-5.688059665429591,3.4215222621560093,2.3547174987688657
1763367257185334000,9.735333984375,-4.029894983029365,2.0456997726529838,1.3775924217849969
1763367257195361000,9.745361083984376,-2.905991198848188,0.5218932918161153,0.5434032589651644
1763367257205387800,9.7553876953125,-2.6322294950306415,-0.7662292869240045,0.3380786931663751
1763367257215415000,9.7654150390625,-2.6510417475283146,-1.404502640542388,0.18343911640085278
1763367257225442800,9.77544287109375,-2.690907309448719,-1.0809382104188203,0.20015695390254257
1763367257235469800,9.7854697265625,-3.0440134758770463,-0.22365736421644686,0.6288645970210432
1763367257245497000,9.7954970703125,-3.2364579557061193,0.6988380046963691,1.324543845425546
1763367257255523800,9.80552392578125,-2.951627453124523,1.245758770263195,1.8109920221120117
1763367257265550800,9.81555078125,-1.7466905225932596,1.3784943390607833,1.6150675912126897
1763367257275577900,9.825577880859376,-0.014608444132283328,1.2010837622344492,1.2878517989747225
1763367257285604900,9.83560498046875,0.5692775588035583,0.7136807690411806,1.2393885045789181
1763367257295632000,9.8456318359375,0.7285539285242557,0.08984159896671771,1.1032010417617857
1763367257305659000,9.855658935546876,0.64922729383111,-0.6581628799587488,0.9313368470162152
1763367257315686000,9.865685791015625,0.4100760078847408,-0.8507114046841859,0.8862801461935043
1763367257325713000,9.875712890625,-0.3331517581582069,-0.4706295530468225,1.2021508069440723
1763367257335741000,9.885740966796876,-1.0517208837628365,0.019929273828864096,1.6194893531776964
1763367257345768000,9.895767822265626,-0.9738421097904443,0.3236509393632412,1.7715132675521075
1763367257355795000,9.905794921875,-0.5766185692161321,-0.015889058527350425,1.4916829113453627
1763367257365822000,9.915822021484376,0.01722231642510742,-0.34850831724405285,1.1941218142673373
1763367257375849000,9.925848876953125,0.645754649284482,-0.12492694087326527,1.2745780375123024
1763367257385876000,9.9358759765625,1.006439142012596,-0.2084627176940441,1.1439552961502224
1763367257395903000,9.945903076171875,1.353641637355089,-0.34219840344488617,0.9810033797219395
1763367257405929700,9.9559296875,1.602068116647005,-0.2798427772969007,0.9134463855385779
1763367257415957000,9.96595703125,1.4963251841932534,-0.20933131722211837,0.9845956320602446
1763367257425984000,9.97598388671875,1.119930496636033,-0.03673077102601528,1.18319680788815
1763367257436012000,9.986011962890625,1.085273024752736,0.16297580876052378,1.115692347609624
1763367257446039000,9.9960390625,1.5099194097816944,-0.10815817690193652,0.7077499176874756
1763367257456065800,10.006065673828125,1.615963955530524,-0.7509007848888635,0.327407003961131
1763367257466093000,10.016093017578125,1.7552226424865423,-1.100803186839819,0.08905943561308086
1763367257476120000,10.0261201171875,1.3220605041772127,-1.3875526747852562,-0.08718180517293513
1763367257486146800,10.036146728515625,0.36268998733162877,-1.5852414850085972,-0.30956388875655827
1763367257496174000,10.046174072265625,-0.7688140427201986,-1.568354063093662,-0.42932226788550615
1763367257506201000,10.056201171875,-0.9818458218954503,-1.8100357443004846,-0.9256853971257806
1763367257516227800,10.066227783203125,-1.5854156725317239,-1.8488129264622926,-1.2052260496709495
1763367257526254800,10.0762548828125,-1.8535551525533198,-1.667132417231798,-1.1300588727448135
1763367257536282000,10.0862822265625,-1.5589841772019861,-1.2292074484348297,-0.9579913374468684
1763367257546310000,10.096309814453125,-1.0492752441763877,-0.6448217523485422,-0.8340916937947273
1763367257556337000,10.1063369140625,-0.6980173359632492,-0.1658814670741558,-0.36124512228555977
1763367257566364200,10.1163642578125,0.007431026783585548,0.291834243863821,0.2179545494649559
1763367257576391000,10.126390869140625,1.0293174749054015,0.5170955361455679,0.39014563807733355
1763367257586418000,10.13641796875,1.9022826508432626,0.9565402618557214,0.7124965276926756
1763367257596445200,10.146445068359375,2.9707740521430965,1.6301514708369969,1.2032775459516794
1763367257606472000,10.156471923828125,4.243549424147606,2.0526427236586806,1.6971230663478374
1763367257616499000,10.1664990234375,5.42076949571371,2.1860399712353944,2.2067511892221865
1763367257626526000,10.17652587890625,6.294687003940344,2.0003034646123647,2.6126728539064525
1763367257636553000,10.186552978515625,7.025534596359729,1.845667614173889,2.798461675238609
1763367257646581000,10.1965810546875,7.50071874397099,1.8277315599888562,2.909121605828404
1763367257656607700,10.206607666015625,7.5288897764444345,1.8712877931207417,3.0265824486047026
1763367257666635000,10.216635009765625,6.66086950956285,1.8900211351633072,3.2255323648050425
1763367257676662000,10.226662109375,4.320793407347798,1.835652416115999,3.301632730928063
1763367257686689000,10.23668896484375,1.9002099362224338,1.4810323379933834,3.0276813497573136
1763367257696716000,10.246716064453125,1.0632219364643096,1.7511685447901486,2.724844358102977
1763367257706743000,10.256742919921875,0.6705335551016033,2.2894705350935456,2.5343320153802633
1763367257716770000,10.26677001953125,0.38261575402915476,2.7047090403079985,2.427484628815949
1763367257726796800,10.276796875,-0.07858136928379535,3.187334151574969,2.6559093535646796
1763367257736824000,10.286823974609375,-0.6673509795427321,3.614907237705588,2.8493033892035484
1763367257746851800,10.296851806640625,-0.8302531385451555,3.728154262179136,3.0123358965873717
1763367257756879000,10.306879150390625,-0.8622977975815534,4.044761128249764,3.531094397509098
1763367257766906000,10.316906005859375,-0.8447703241974115,4.307416039380431,3.065820234015584
1763367257776932900,10.326932861328125,0.18256065306589006,3.379991397371888,0.9628068479698151
1763367257786960000,10.3369599609375,0.7888326022677123,1.9940572636991738,-1.0447434459656477
1763367257796987100,10.346987060546875,1.181674274495989,0.9866747033566236,-2.4921561306908724
1763367257807014000,10.357013916015624,2.5749586248010394,-0.15008943918049333,-3.548494737382233
1763367257817041000,10.367041015625,5.319474774840474,-1.4495207629203795,-4.985774150627851
1763367257827068200,10.377068115234374,11.365372311395406,-2.517605336984992,-7.054312362554669
1763367257837095000,10.387094970703124,11.243525216358899,-1.488271057075262,-6.34432109568119
1763367257847122000,10.397121826171874,6.763083098846674,2.1422879232704637,-3.340328664547205
1763367257857150000,10.40714990234375,3.050149786674976,5.6368818513780825,-2.3603166339501738
1763367257867177000,10.417177001953124,-0.3849626459488645,7.5039406286269426,-2.372302547559142
1763367257877204000,10.427203857421874,-2.939516159570217,7.034538571548461,-2.3461095371603964
1763367257887231000,10.43723095703125,-4.294658849138021,4.589810839247703,-1.9819968235492704
1763367257897258000,10.447258056640624,-5.3100762473762035,2.747466816538572,-0.8130063087332994
1763367257907285000,10.457284912109374,-6.836274591785669,1.508849150201678,0.3185454329177737
1763367257917312000,10.46731201171875,-7.9854048794209955,0.4592267000228166,0.9451967378035188
1763367257927339000,10.477339111328124,-8.762678707450627,-0.07648235117793083,1.8014210606902836
1763367257937366000,10.487365966796874,-8.9045456772089,-0.32886195200979706,2.4486649256192146
1763367257947393000,10.49739306640625,-8.139884662514925,0.19515607687532902,2.4759192816391584
1763367257957421000,10.507421142578124,-5.254449637222289,1.3771294804483651,2.2721625496789812
1763367257967448000,10.517447998046874,0.852884072548151,2.3870710776239634,1.8522575139582156
1763367257977474800,10.527474853515624,5.515097300183773,3.315545520946383,2.167303414322436
1763367257987502000,10.537502197265624,3.3319738009169697,3.312361045691371,1.755278318196535
1763367257997529000,10.547529052734374,-0.0485503881573677,2.0385025546252726,0.7628650711879134
1763367258007555800,10.557555908203126,-2.1810078222870826,0.937394831880927,-0.006060688278451562
1763367258017582800,10.567582763671876,-5.414876346021891,0.3929886794835329,0.06844239871576428
1763367258027610000,10.577610107421876,-8.167268344002961,0.5445598816543817,0.9248443431917578
1763367258037637000,10.58763720703125,-5.49503533988595,-0.09620879591107367,1.1318558391641824
1763367258047663900,10.597663818359376,-4.127005696216226,-1.3016688735336064,0.7499751944765448
1763367258057692200,10.607692138671876,-4.305191349068283,-2.055848241701722,-0.007101283372566104
1763367258067719000,10.617718994140626,-4.922913497567176,-2.3100603186577557,-0.345163244599849
1763367258077746000,10.627745849609376,-5.224183678296208,-2.4049691378861664,-0.7767714314654469
1763367258087773200,10.637773193359376,-5.1145150968313216,-2.472359835591912,-0.8940284222327172
1763367258097800000,10.647800048828126,-4.6528310667842625,-2.762361603331566,-0.9341885831855237
1763367258107827000,10.657826904296876,-4.445309429332614,-3.143343034157157,-0.8266903314970433
1763367258117854000,10.66785400390625,-4.421380272212624,-3.4994647490143773,-0.7023169328533112
1763367258127881000,10.677880859375,-3.909807883402705,-3.9196658450722692,-0.9125692373778671
1763367258137908000,10.687907958984376,-3.61649801402837,-4.343437785354256,-1.2105240830138324
1763367258147935000,10.69793505859375,-3.58340384593904,-4.680679443174601,-1.4142857834100722
1763367258157963000,10.707962890625,-3.5846938857495783,-4.9066029987573625,-1.5322951999798415
1763367258167990000,10.717989990234376,-3.6936850063443183,-4.891530517309904,-1.599957115842402
1763367258178017000,10.72801708984375,-3.7820182465746996,-4.784939443594217,-1.5884784211032092
1763367258188044000,10.7380439453125,-3.7490441977337,-4.503725962466001,-1.2826730811625717
1763367258198071000,10.748071044921875,-3.665324004256725,-4.359177790799737,-0.9257653304941952
1763367258208098000,10.75809814453125,-3.075532357473671,-4.506738003763556,-0.6029749900156631
1763367258218124800,10.768124755859375,-1.8836255889073013,-4.504614435738325,-0.46602092674020673
1763367258228152000,10.778152099609375,-0.8557946992978454,-4.180806259986758,-0.49876544114165006
1763367258238179000,10.788178955078125,0.3969344944998622,-3.373607249292731,-0.42122262112535536
1763367258248205800,10.798205810546875,1.877069006870687,-1.848489685857296,-0.33124077343773095
1763367258258234000,10.808234130859375,4.981421800637245,1.0830851593196391,0.42847661084160205
1763367258268260900,10.8182607421875,8.727740665060281,5.593685683730245,2.0694867448233065
1763367258278288000,10.828287841796875,13.968886584073305,10.33875313566327,3.880171746812761
1763367258288315100,10.838315185546875,15.776778886604308,13.163706511986256,5.713402196478843
1763367258298342000,10.848341796875,11.332889260941743,11.13270454224944,6.219673556271195
1763367258308369000,10.858368896484375,6.8750611262977115,6.096457510969042,4.810571897500753
1763367258318396200,10.868396240234375,4.027283046965301,2.3628671952158213,3.3658258016362783
1763367258328423000,10.8784228515625,1.5057809948027132,-0.24709026225209235,2.4628230687007306
1763367258338450000,10.888449951171875,-0.07848492317199707,-2.1795547008693217,1.6942475109115243
1763367258348478000,10.89847802734375,-0.29635405937582254,-3.1018133384168145,0.7452489696722477
1763367258358505000,10.9085048828125,-0.27492548689991236,-2.705263751581311,-1.0275944505050778
1763367258368532000,10.918531982421875,0.9585361118480562,-0.348882995775342,-3.5214138382330535
1763367258378559000,10.92855908203125,3.4262428609371183,3.913765681117773,-4.888693832579254
1763367258388586000,10.9385859375,6.541939763277768,8.842855236971378,-3.3243682943493127
1763367258398613000,10.948613037109375,4.869705638992786,12.317889309084414,-0.6826286281734705
1763367258408640000,10.958639892578125,1.9370678407594561,12.828394360923767,1.3655642764694989
1763367258418667000,10.9686669921875,3.4189956662878394,10.02711295208931,1.9206164721742272
1763367258428695000,10.978695068359375,-2.185604502427578,2.501424602034688,1.9802295216158032
1763367258438721800,10.9887216796875,-8.887401650184392,-6.703322165367007,0.09735655030724592
1763367258448749000,10.9987490234375,-14.180027581065893,-11.65912144896984,-2.7752301449939605
1763367258458776800,11.00877685546875,-16.05298418418169,-11.918200255179405,-4.2073239722952245
1763367258468803800,11.018803955078125,-11.175708986717462,-10.730512565612793,-7.199014263477921
1763367258478831000,11.0288310546875,-6.498097114419937,-9.565680266454816,-10.464504836922883
1763367258488858000,11.038858154296875,-0.5541010324597359,-7.211857962960004,-13.22330202577114
1763367258498884900,11.048884765625,6.394669473171234,-2.1724919228762385,-13.114054884588718
1763367258508912000,11.058912109375,-0.25497312445640563,1.94678639395833,-6.431143054565787
1763367258518939100,11.068939208984375,-7.193908464771509,5.353077769234776,-1.1261735557440669
1763367258528966000,11.0789658203125,-10.787191315168142,7.722908958244323,0.9864371682737022
1763367258538993000,11.088992919921875,-8.37930599757433,6.637900721907616,1.9633108277797697
1763367258549020200,11.099020263671875,-3.37090500459671,3.7000557104200125,2.456404433830082
1763367258559048000,11.1090478515625,-1.2541536736428738,1.5167939717262982,2.9779025888487696
1763367258569075000,11.119074951171875,-1.2177030347324906,0.9138906221747398,3.5199797137767073
1763367258579102000,11.12910205078125,-2.01549343495965,0.9652899700224399,3.4923087397798893
1763367258589129000,11.13912890625,-2.2747265549480913,0.8415963703364133,2.4281499608568846
1763367258599156000,11.149156005859375,-2.0040473273158073,0.37558921639323234,0.8868706594325602
1763367258609183000,11.159182861328125,-1.7234382418215273,-0.1327419985383749,-0.13280260615181178
1763367258619210000,11.1692099609375,-1.7550597070097922,-0.5469774641901254,-0.4239813452489674
1763367258629237000,11.179237060546875,-1.7263807250142096,-0.9121341338962315,-0.7342058898713439
1763367258639263700,11.189263671875,-1.4586340437024832,-1.1792167983412742,-1.1411752369776367
1763367258649291000,11.199291015625,-0.914699600470066,-1.3714859216034412,-1.7736304058365522
1763367258659319000,11.209319091796875,-0.3940712140232324,-1.5596265667587519,-2.520227502182126
1763367258669346000,11.219345947265625,-0.427172104114294,-1.6153057838827372,-2.6273613044723865
1763367258679373000,11.229373046875,-1.117815696439147,-1.5972539943635462,-1.9605206125393508
1763367258689400000,11.239400146484375,-1.406427471125126,-1.0433932004004716,-1.071729725633934
1763367258699426800,11.2494267578125,-1.5491566106706858,-0.440613184967637,0.059787876285519445
1763367258709454000,11.2594541015625,-1.69396606362164,0.10155249502658843,1.302099520035833
1763367258719481000,11.269481201171875,-0.9584399579972028,0.9257137464374303,2.4175438111685215
1763367258729507800,11.2795078125,0.45770464155469087,1.5776228266984222,3.3771818929091095
1763367258739535000,11.28953515625,1.6346522893875837,1.7408979106664657,3.7837276808410882
1763367258749562000,11.29956201171875,2.023682586634159,1.1443044749140738,3.3046193455234167
1763367258759588900,11.3095888671875,1.752588932982087,0.5081330620110035,2.5128157646209
1763367258769617200,11.3196171875,1.327688280931115,-0.03037175738811493,1.6836362466566264
1763367258779644000,11.329643798828124,1.0732312893033027,-0.5157686714559793,1.2297525150969624
1763367258789671000,11.3396708984375,1.0675316163569688,-0.8388923720747232,0.8490585229106247
1763367258799698000,11.349697998046874,1.180989068710804,-0.794486828637123,0.37025768263954667
1763367258809725000,11.359724853515624,1.3422205180220306,-0.6064864687353372,0.20426015143766998
1763367258819752000,11.369751953125,1.5037689243279397,-0.633507162129879,-0.025836744306981563
1763367258829779000,11.379779052734374,1.808511311212182,-0.8440197980910539,-0.23302933246735483
1763367258839806000,11.389805908203124,1.8962598834224045,-1.1262848340988159,-0.34138496817015107
1763367258849833000,11.3998330078125,1.4068155936598776,-1.3701052809000014,-0.40468510862663387
1763367258859860000,11.40985986328125,0.7038754143416881,-1.422016669923067,-0.3285779474366456
1763367258869888000,11.419887939453124,-0.06645648559555412,-1.3955571175426245,-0.24844269977435468
1763367258879915000,11.4299150390625,-0.5911825166195631,-1.49495155775249,-0.41159569173268973
1763367258889942000,11.43994189453125,-0.8439122460633516,-1.328898825764656,-0.3631770401962101
1763367258899969000,11.449968994140624,-0.7007094976566731,-0.56479836756289,0.18200155787840486
1763367258909996000,11.45999609375,0.13959990160912275,0.6140431677252054,0.9771009654559194
1763367258920023000,11.47002294921875,1.2810717834457754,1.4019021026551723,1.6559844157516956
1763367258930049800,11.4800498046875,2.682861657898128,1.7249878093510864,2.392764028568566
1763367258940077000,11.4900771484375,4.151361554315686,1.7188894924759863,3.108082920205593
1763367258950104000,11.50010400390625,4.873149057444929,1.565174848535657,3.727524147582054
1763367258960130800,11.510130859375,4.687757418736815,1.536034094247222,3.927264045116305
1763367258970158000,11.520157958984376,4.066686252070963,1.822086247578263,3.5772505840063094
1763367258980186000,11.53018603515625,3.66332873878628,1.8500006749421356,2.887713491618633
1763367258990212900,11.540212890625,3.6081682848393917,1.3405132757127285,2.284864064211398
1763367259000240000,11.550240234375,3.6382808067694303,1.1494061819672583,2.2453876477390526
1763367259010267100,11.56026708984375,3.2172724859818813,1.1547972273558378,2.6695494641214608
1763367259020294000,11.5702939453125,2.7450018877297637,1.4225216968357561,3.125985656642914
1763367259030321000,11.58032080078125,2.0912629616931078,1.4505278941363096,3.3363813882261515
1763367259040348200,11.59034814453125,1.5252357829876244,1.6723586274474858,3.654618485847115
1763367259050375000,11.600375,0.7168830722138285,1.5415402904480695,3.704513274350762
1763367259060402000,11.61040185546875,-0.3509671085730195,1.884892540103197,4.035211209616064
1763367259070429200,11.62042919921875,-0.9291272081427275,1.2714917619347572,4.000480380235612
1763367259080456000,11.6304560546875,-0.8629825649753212,1.1845476379752158,3.633141690315306
1763367259090484000,11.64048388671875,-0.8382160802483558,1.9905928024590014,2.99910670491904
1763367259100511000,11.650510986328126,-0.3959796779930591,2.770066770881414,0.9685348702277987
1763367259110538000,11.6605380859375,0.572840219721198,3.1062843463510275,-1.6843045013070106
1763367259120565000,11.67056494140625,2.5998776697412134,3.1291058344900606,-4.160952389481664
1763367259130591700,11.680591796875,5.988803191936015,2.502880646061897,-5.554494075548648
1763367259140619000,11.690618896484375,9.089281482356785,1.5358610757678746,-5.560363259842991
1763367259150646000,11.70064599609375,10.45289272506237,1.395442551252246,-3.532117895337939
1763367259160673000,11.710673095703125,8.752825421956182,1.6649381220579147,-0.945845264840126
1763367259170700000,11.720699951171875,5.227022701114416,2.091229351684451,0.7934814509868622
1763367259180727000,11.73072705078125,2.537417121914029,2.2732354396075007,0.957175052627921
1763367259190754000,11.740754150390625,1.2599164749532936,1.8450339924454688,-0.6893805135864765
1763367259200782000,11.750781982421875,-0.4920019383560866,1.536789296528697,-2.106268807645142
1763367259210809000,11.76080908203125,-1.9735995820820331,2.0082658217936755,-2.7492975390970704
1763367259220835800,11.7708359375,-2.415878654435277,2.8483880279242992,-3.0677924108713865
1763367259230863000,11.780863037109375,-2.0566975520074364,3.157836838933825,-3.5567250978499647
1763367259240890000,11.79089013671875,-2.153040787953138,3.1388936535328624,-4.127901768273115
1763367259250916900,11.800916748046875,-2.5968460469603536,2.9132424851506946,-3.7499253644824027
1763367259260944000,11.81094384765625,-3.3501369418561455,2.247431136265397,-2.4432345711335537
1763367259270971100,11.82097119140625,-3.5174972493112087,1.8812913007408378,-0.9003429391417652
1763367259280998000,11.830997802734375,-5.80453266621232,2.59972481726706,0.9223537684850395
1763367259291025000,11.84102490234375,-7.657759317463636,3.419626657667756,2.2338456785053014
1763367259301052200,11.85105224609375,-3.6955750578746196,3.5023160467922687,2.6892291471034286
1763367259311079000,11.861078857421875,0.3879708513215184,2.484270053616166,2.4520474076643586
1763367259321107000,11.87110693359375,0.07535568523555994,1.603724067160487,1.5308926397055387
1763367259331134200,11.88113427734375,-1.009322880755365,1.34079033908844,1.029378338247165
1763367259341161000,11.891160888671875,-2.871415852290392,1.1962339841157197,1.160814149557799
1763367259351188000,11.90118798828125,-3.9209129225239154,0.6525111378073692,0.37144934010952707
1763367259361215000,11.911215087890625,-4.52397175489813,0.2527133628308773,0.5151038874043151
1763367259371242000,11.921241943359375,-4.7373935563042755,0.11808102050125598,1.1307824377790092
1763367259381269000,11.93126904296875,-4.475999166628718,0.16216332333385944,1.803928951857984
1763367259391296000,11.9412958984375,-4.335671243005991,-0.15785715057253838,1.6610159801781177
1763367259401323000,11.951322998046875,-4.607696040028333,-0.7394324654132127,1.3342302499204872
1763367259411350000,11.96135009765625,-4.521123671990633,-1.2055372345119715,0.8707225115776062
1763367259421377000,11.971376953125,-5.046380887281894,-1.8360820397049187,0.3408328872453421
1763367259431404000,11.981404052734375,-5.219252067112922,-2.3395856883496045,0.09549056463912128
1763367259441431000,11.99143115234375,-5.510239338758588,-2.8079128096729513,-0.055532629993837325
1763367259451458300,12.001458251953125,-5.34085600104332,-3.2887779255300758,-0.28846898694811385
1763367259461485000,12.011485107421874,-4.733218900968134,-3.502317800357938,-0.42719256238043307
1763367259471512000,12.021511962890624,-4.448671891503036,-3.9099674578785892,-0.774109080388397
1763367259481539000,12.0315390625,-4.1643955156728625,-4.1228608514964575,-1.0170146773669868
1763367259491566000,12.041566162109374,-4.04145039626658,-4.175629734131694,-1.1001827168539167
1763367259501593000,12.051593017578124,-3.8455502230256795,-4.034280650767684,-1.0232903235703705
1763367259511620000,12.0616201171875,-3.586373217138648,-4.029712027677894,-1.0909588883694261
1763367259521647000,12.071647216796874,-3.535088435581326,-4.2510768970429895,-1.0818915656208992
1763367259531674000,12.081674072265624,-3.15214914868623,-4.378280550676584,-0.9096608756504952
1763367259541701000,12.091701171875,-2.8650381339520212,-4.7595747007131575,-0.929633696360141
1763367259551729200,12.101729248046874,-2.5486419880226254,-4.812990649080276,-0.95690434592776
1763367259561756200,12.111756103515624,-2.090394069904089,-4.663329079923034,-0.8020156167067587
1763367259571783200,12.121783203125,-1.0959025553166866,-4.204185966530442,-0.5109569237926974
1763367259581810000,12.131809814453124,0.1354053725287318,-3.434733041384816,-0.2878921551745385
1763367259591837200,12.141837158203124,1.9726067716524003,-2.343116785085201,-0.07804488778691739
1763367259601864200,12.1518642578125,4.635943352608383,-0.8669365632981061,0.2307862114493735
1763367259611891000,12.161890869140626,8.494201958298683,1.297063425564766,0.6518225710213184
1763367259621918200,12.171918212890626,11.78737841104865,4.441975316473841,1.738960366732627
1763367259631945200,12.1819453125,11.667177329653502,7.782628390669823,2.5900804983481764
1763367259641972000,12.191971923828126,9.187104727727174,9.925967284297943,2.9315286679476498
1763367259651999000,12.2019990234375,6.339767670160532,8.92906987761259,1.642964190658927
1763367259662026200,12.212026123046876,4.810047873626649,5.508185328838229,0.20459559393711388
1763367259672054000,12.222053955078126,3.7657296673357483,1.9970003314137457,-0.34360154824107886
1763367259682081300,12.232081298828126,2.967726355010271,-0.5958773964375257,-0.3979387761715799
1763367259692108000,12.24210791015625,2.742511239957809,-2.4127158064901826,-0.8679628376059234
1763367259702135000,12.252135009765626,2.87436534974575,-2.2417273716658355,-1.9499384282484649
1763367259712162000,12.262162109375,2.721396263475716,-0.26250994970202446,-3.642643970414996
1763367259722189300,12.272189208984376,2.658862650412321,2.117656170839071,-3.1816593208089468
1763367259732216000,12.282216064453126,2.7131065740361806,2.8114176029235125,-0.9322649947118014
1763367259742243000,12.2922431640625,2.144456499481201,3.766943134778738,-0.3911500293469056
1763367259752270300,12.302270263671875,0.32649726870507,5.837022730928659,-0.026809443530347195
1763367259762297000,12.312297119140625,-0.0862500042155385,7.87974319550991,0.746827690231055
1763367259772324000,12.322323974609375,1.6281272715330124,7.469121244180202,0.7453216695822775
1763367259782351000,12.33235107421875,0.09066635935306548,2.499911859384179,1.5907530880369245
1763367259792379100,12.342379150390625,-8.154283774745464,-4.2996173483282325,1.5670497024968266
1763367259802406100,12.35240625,-13.659140251421928,-8.953022415608167,0.10272884532958268
1763367259812433000,12.362432861328125,-14.72765328003168,-11.296233893239497,-3.302432941395044
1763367259822460200,12.372460205078125,-7.845498396080732,-11.698871275556087,-6.809587660390139
1763367259832487200,12.382487060546875,6.27305969402194,-8.9757135553658,-10.183160422891378
1763367259842514000,12.392513916015625,6.148339089375734,-1.5811942554444074,-9.313249812218546
1763367259852541200,12.402541259765625,-2.4881030559077857,5.712994200199842,-3.2002284122005102
1763367259862568200,12.412568115234375,-6.349827291882038,7.4593071216523645,1.4963022417090832
1763367259872595000,12.422594970703125,-7.966507286727428,6.755882958209514,3.2663974591568112
1763367259882622000,12.4326220703125,-7.689140544155239,5.7445332478016615,3.226999514748156
1763367259892649200,12.442649169921875,-5.605784702324867,3.5241081918835637,2.4126972479201854
1763367259902676200,12.45267626953125,-3.108564566242695,0.5223942270755767,0.8483635263837873
1763367259912704000,12.4627041015625,-1.5533911795005202,-1.1955068388849497,0.04895758071877062
1763367259922731300,12.472731201171875,-1.8332956238567828,-1.6534516824036836,0.33888489498272534
1763367259932758000,12.482758056640625,-2.232072823613882,-1.7634201235979794,0.5605477974463254
1763367259942785000,12.492784912109375,-3.125912006884813,-1.3487468510508536,0.9256827667772769
1763367259952812300,12.502812255859375,-4.100115935724974,-0.40863340786099434,1.2597890491813422
1763367259962839000,12.512839111328125,-3.5234874296367167,0.5282382769286632,0.742926006617397
1763367259972866000,12.522865966796875,-2.1315829893827436,1.1378835019558668,0.3124176342198625
1763367259982893000,12.53289306640625,-0.4579121833581477,1.1684335385203362,0.16550835944544523
1763367259992920000,12.542920166015625,0.25230061731152237,0.556776973670721,0.027642003630660474
1763367260002947000,12.552947021484375,1.1314870058517903,-0.4761100302845239,-0.346647272612527
1763367260012974000,12.56297412109375,0.9975427188515662,-1.4671259777158498,-0.5149610814001411
1763367260023001000,12.5730009765625,-0.008795885396003723,-1.7231196773916482,-0.13287877666056155
1763367260033028000,12.583028076171875,-1.1722305927157401,-0.968443465617299,0.8426328007120638
1763367260043056000,12.59305615234375,-2.1791467045903206,-0.23885142621695993,1.6574933590099215
1763367260053083100,12.603083251953125,-1.8624340400576591,0.3719336164951324,2.5463170522063967
1763367260063110100,12.613110107421875,-1.0974971310317516,1.0132552517682314,3.4942373697549103
1763367260073137200,12.62313720703125,-0.3202736084172502,1.365477036577463,4.078868272773922
1763367260083164200,12.6331640625,0.6334785205572843,1.1043214240938424,3.9832808236315844
1763367260093191200,12.643191162109375,1.283407825177908,0.6114882225453854,3.288982800452411
1763367260103218200,12.65321826171875,1.68027714548707,0.6472492717564106,2.768890128317475
1763367260113245000,12.663244873046875,2.3159353481709957,-0.20352409224808216,1.9763544337481258
1763367260123272200,12.673272216796875,1.4536369660675525,-0.4465811534613371,1.4326251576989888
1763367260133299200,12.68329931640625,0.7938023535043001,-0.5536906980931758,0.8594931154243648
1763367260143326000,12.693325927734374,0.8674848448306322,-0.7419611071079969,-0.07625774864181875
1763367260153353200,12.703353271484374,0.713326402645558,-0.9040461045086383,-0.6786707573931664
1763367260163381000,12.713381103515625,0.9806687409400939,-1.2850696209102868,-0.878220173856616
1763367260173408000,12.723407958984374,1.2248416544407605,-1.655094188913703,-0.7964175775039941
1763367260183435300,12.733435302734375,1.5228420197188854,-1.8059820849955082,-0.824901913710311
1763367260193462000,12.7434619140625,1.4416285483658313,-1.8032494451612233,-0.8001003576699643
1763367260203489000,12.753489013671874,0.8037725433766841,-1.7513789726704359,-0.34499563294798136
1763367260213516000,12.76351611328125,0.4208224428266287,-1.7029378901064396,-0.20865721735283732
1763367260223543000,12.77354296875,0.11991831893101333,-1.9349591780424118,-0.28991452784761784
