time,seconds_elapsed,z,y,x
1763367247524217900,0.0742177734375,-1.0124053955078125,-0.1871490478515625,0.2333831787109375
1763367247534246000,0.084245849609375,-0.9351806640625,-0.219635009765625,0.2422943115234375
1763367247544273000,0.09427294921875,-0.9252471923828125,-0.25042724609375,0.246246337890625
1763367247554300000,0.1042998046875,-0.9665679931640625,-0.1408233642578125,0.3529052734375
1763367247564327000,0.114326904296875,-0.8521881103515625,-0.0772552490234375,0.394622802734375
1763367247574354000,0.12435400390625,-0.7219390869140625,-0.1314544677734375,0.29510498046875
1763367247584381000,0.134380859375,-0.6543426513671875,-0.20184326171875,0.18426513671875
1763367247594407700,0.14440771484375,-0.637847900390625,-0.2793426513671875,0.0773773193359375
1763367247604435000,0.15443505859375,-0.7127227783203125,-0.3443450927734375,0.003173828125
1763367247614462000,0.1644619140625,-0.873565673828125,-0.414764404296875,-0.0861663818359375
1763367247624488700,0.17448876953125,-1.03680419921875,-0.4740142822265625,-0.1675262451171875
1763367247634517000,0.18451708984375,-1.049285888671875,-0.4585113525390625,-0.1379547119140625
1763367247644544000,0.1945439453125,-1.0147857666015625,-0.3927154541015625,-0.0719146728515625
1763367247654570800,0.20457080078125,-0.9512176513671875,-0.3116607666015625,0.017120361328125
1763367247664598000,0.214597900390625,-0.8893890380859375,-0.2256011962890625,0.1252593994140625
1763367247674625000,0.224625,-0.849639892578125,-0.157958984375,0.212615966796875
1763367247684651800,0.23465185546875,-0.829193115234375,-0.1249237060546875,0.2613525390625
1763367247694678800,0.2446787109375,-0.7610626220703125,-0.0983123779296875,0.300262451171875
1763367247704706000,0.2547060546875,-0.7937469482421875,-0.063629150390625,0.1665496826171875
1763367247714732800,0.26473291015625,-0.8381500244140625,-0.0572509765625,0.071502685546875
1763367247724759800,0.274759765625,-0.77166748046875,-0.0413665771484375,0.12213134765625
1763367247734787000,0.284787109375,-0.6345062255859375,-0.0215606689453125,0.156280517578125
1763367247744814800,0.29481494140625,-0.498321533203125,-0.011138916015625,0.10235595703125
1763367247754841900,0.304841796875,-0.457427978515625,-0.030364990234375,0.0151824951171875
1763367247764868900,0.314868896484375,-0.4134368896484375,-0.102386474609375,-0.0993499755859375
1763367247774895900,0.324895751953125,-0.4230194091796875,-0.2686920166015625,-0.1604461669921875
1763367247784923000,0.3349228515625,-0.4770965576171875,-0.4411468505859375,-0.0822906494140625
1763367247794950000,0.344949951171875,-0.6681060791015625,-0.378509521484375,0.1195220947265625
1763367247804977000,0.354976806640625,-0.71337890625,-0.1317291259765625,0.29522705078125
1763367247815004000,0.36500390625,-0.5792388916015625,0.0432586669921875,0.3713226318359375
1763367247825031000,0.375031005859375,-0.5170440673828125,0.1203155517578125,0.4154052734375
1763367247835058000,0.385057861328125,-0.62872314453125,0.1234130859375,0.490814208984375
1763367247845086000,0.3950859375,-0.7025299072265625,0.035369873046875,0.6092529296875
1763367247855112700,0.40511279296875,-0.5897064208984375,-0.0579681396484375,0.7358245849609375
1763367247865140000,0.415139892578125,-0.616668701171875,-0.064453125,0.8058319091796875
1763367247875167000,0.4251669921875,-0.60589599609375,0.0090484619140625,0.844268798828125
1763367247885193700,0.43519384765625,-0.30023193359375,0.0696563720703125,0.821990966796875
1763367247895221000,0.445220947265625,-0.064971923828125,0.10064697265625,0.830352783203125
1763367247905248000,0.455248046875,-0.1155853271484375,0.116668701171875,0.816558837890625
1763367247915274800,0.465274658203125,-0.2035369873046875,0.0358734130859375,0.69598388671875
1763367247925301800,0.4753017578125,-0.3931427001953125,-0.0089569091796875,0.683502197265625
1763367247935329000,0.4853291015625,-0.60595703125,0.0724334716796875,0.80279541015625
1763367247945356800,0.495356689453125,-0.6876983642578125,0.15057373046875,0.9429779052734375
1763367247955384000,0.505384033203125,-0.72247314453125,0.1743927001953125,1.0991668701171875
1763367247965411000,0.5154111328125,-0.7340850830078125,0.1793060302734375,1.218841552734375
1763367247975437800,0.525437744140625,-0.681884765625,0.187896728515625,1.2768402099609375
1763367247985464800,0.53546484375,-0.6007080078125,0.2393035888671875,1.3284759521484375
1763367247995492000,0.5454921875,-0.5166473388671875,0.2525634765625,1.335601806640625
1763367248005518800,0.555518798828125,-0.43560791015625,0.2072296142578125,1.314239501953125
1763367248015545900,0.5655458984375,-0.3597564697265625,0.1100311279296875,1.2810516357421875
1763367248025573000,0.575572998046875,-0.263916015625,0.0706634521484375,1.2691497802734375
1763367248035600000,0.585599853515625,-0.1333770751953125,0.07611083984375,1.2855072021484375
1763367248045628000,0.5956279296875,0.0311737060546875,0.0258941650390625,1.2879638671875
1763367248055655000,0.605655029296875,0.1338958740234375,-0.0483856201171875,1.28851318359375
1763367248065682000,0.615681884765625,0.0948944091796875,-0.186065673828125,1.3280181884765625
1763367248075709000,0.625708984375,-0.05401611328125,-0.3248138427734375,1.4910430908203125
1763367248085735700,0.635735595703125,-0.0260009765625,-0.1400909423828125,1.5368804931640625
1763367248095763000,0.645762939453125,0.0201263427734375,-0.187164306640625,1.750396728515625
1763367248105790000,0.6557900390625,0.0515289306640625,-0.178131103515625,1.77783203125
1763367248115816700,0.665816650390625,0.144012451171875,0.01953125,1.5621795654296875
1763367248125844000,0.675843994140625,0.1207733154296875,0.0308074951171875,1.28314208984375
1763367248135871000,0.68587109375,-0.1251373291015625,0.0427398681640625,1.050201416015625
1763367248145898000,0.69589794921875,-0.46044921875,0.0995025634765625,0.863433837890625
1763367248155926000,0.705926025390625,-0.7227783203125,0.180023193359375,0.9602813720703125
1763367248165953000,0.715953125,-0.8354339599609375,0.16497802734375,1.035980224609375
1763367248175979800,0.725979736328125,-0.8852386474609375,0.0679473876953125,1.0854339599609375
1763367248186006800,0.7360068359375,-0.89892578125,0.0611114501953125,1.003997802734375
1763367248196034000,0.746033935546875,-0.941619873046875,0.1260986328125,0.94744873046875
1763367248206060800,0.756060791015625,-0.8272552490234375,0.154541015625,1.0037994384765625
1763367248216087800,0.766087890625,-0.733489990234375,0.182037353515625,1.0285491943359375
1763367248226115000,0.776114990234375,-0.6861572265625,0.1929473876953125,1.0680694580078125
1763367248236141800,0.786141845703125,-0.7077178955078125,0.2071685791015625,1.1024627685546875
1763367248246168800,0.7961689453125,-0.6688690185546875,0.1930694580078125,1.136993408203125
1763367248256196900,0.80619677734375,-0.558868408203125,0.1597442626953125,1.20947265625
1763367248266223900,0.816223876953125,-0.5302581787109375,0.155731201171875,1.2832489013671875
1763367248276251000,0.8262509765625,-0.5816497802734375,0.1901702880859375,1.3452911376953125
1763367248286278000,0.83627783203125,-0.613616943359375,0.21881103515625,1.3687286376953125
1763367248296305000,0.846304931640625,-0.590789794921875,0.215972900390625,1.3139495849609375
1763367248306332000,0.856331787109375,-0.5125274658203125,0.1911163330078125,1.223541259765625
1763367248316359000,0.86635888671875,-0.409942626953125,0.1501617431640625,1.1262054443359375
1763367248326386000,0.876385986328125,-0.3516845703125,0.1380157470703125,1.0348968505859375
1763367248336413000,0.886412841796875,-0.2548828125,0.1206207275390625,0.97100830078125
1763367248346440000,0.89643994140625,-0.1622772216796875,0.086700439453125,0.951019287109375
1763367248356468000,0.906468017578125,-0.2372283935546875,0.129486083984375,0.98333740234375
1763367248366495000,0.916494873046875,-0.3660430908203125,0.1851043701171875,1.0018310546875
1763367248376521700,0.926521728515625,-0.0873260498046875,0.1495513916015625,1.03497314453125
1763367248386549000,0.936549072265625,0.2923736572265625,0.070465087890625,1.0898895263671875
1763367248396576000,0.946575927734375,0.3406524658203125,0.0896759033203125,1.155670166015625
1763367248406602800,0.956602783203125,0.2899322509765625,0.1112518310546875,1.1395416259765625
1763367248416629800,0.966629638671875,0.141082763671875,0.151947021484375,1.128021240234375
1763367248426657000,0.976656982421875,-0.0312957763671875,0.1232147216796875,1.118804931640625
1763367248436683800,0.986683837890625,-0.19158935546875,0.048065185546875,1.0774383544921875
1763367248446711800,0.9967119140625,-0.3516082763671875,0.016998291015625,1.028594970703125
1763367248456739000,1.006739013671875,-0.47900390625,0.0167999267578125,1.02911376953125
1763367248466765800,1.016765869140625,-0.4964599609375,0.0309295654296875,1.026580810546875
1763367248476792800,1.026792724609375,-0.4722900390625,0.04742431640625,0.9851837158203125
1763367248486819800,1.03681982421875,-0.32733154296875,0.080810546875,1.009521484375
1763367248496846800,1.046846923828125,-0.1788177490234375,0.1104736328125,1.0734710693359375
1763367248506873900,1.056873779296875,-0.11505126953125,0.0889129638671875,1.14697265625
1763367248516900900,1.06690087890625,0.09368896484375,0.03839111328125,1.249267578125
1763367248526928000,1.076927978515625,0.252197265625,0.0166778564453125,1.3350372314453125
1763367248536955000,1.086954833984375,0.0390472412109375,0.0496978759765625,1.4546966552734375
1763367248546982700,1.096982666015625,-0.18194580078125,0.106719970703125,1.478912353515625
1763367248557010000,1.107010009765625,-0.260101318359375,0.1374664306640625,1.4649200439453125
1763367248567037000,1.117036865234375,0.2240753173828125,0.0623626708984375,1.324676513671875
1763367248577063700,1.127063720703125,-0.271759033203125,0.1935882568359375,1.148468017578125
1763367248587091000,1.137091064453125,-0.5003662109375,0.1933135986328125,0.9363555908203125
1763367248597118000,1.147117919921875,-0.4901885986328125,0.17498779296875,0.7709808349609375
1763367248607145000,1.15714501953125,-0.5499267578125,0.219940185546875,0.7489166259765625
1763367248617171700,1.167171630859375,-0.437469482421875,0.2546844482421875,0.7523193359375
1763367248627199000,1.177198974609375,-0.325439453125,0.2784271240234375,0.7814483642578125
1763367248637226000,1.18722607421875,-0.2093353271484375,0.27294921875,0.8068695068359375
1763367248647253800,1.197253662109375,-0.049530029296875,0.270233154296875,0.842864990234375
1763367248657281000,1.207281005859375,0.1212921142578125,0.294158935546875,0.8414154052734375
1763367248667307800,1.217307861328125,0.2715606689453125,0.32513427734375,0.792938232421875
1763367248677334800,1.227334716796875,0.2736968994140625,0.388885498046875,0.8045806884765625
1763367248687362000,1.237362060546875,0.1217193603515625,0.4039306640625,0.821685791015625
1763367248697388800,1.247388916015625,-0.0434722900390625,0.3770751953125,0.7870025634765625
1763367248707415800,1.257415771484375,-0.2409820556640625,0.3332672119140625,0.744171142578125
1763367248717442800,1.26744287109375,-0.3614654541015625,0.2929229736328125,0.7079010009765625
1763367248727469800,1.2774697265625,-0.43829345703125,0.2595977783203125,0.7115325927734375
1763367248737496800,1.287496826171875,-0.549072265625,0.223907470703125,0.6906280517578125
1763367248747524900,1.29752490234375,-0.65283203125,0.2335968017578125,0.62701416015625
1763367248757551900,1.3075517578125,-0.6804046630859375,0.27569580078125,0.6353759765625
1763367248767579000,1.317578857421875,-0.5651397705078125,0.2918243408203125,0.5998992919921875
1763367248777606000,1.32760595703125,-0.3021240234375,0.2770538330078125,0.5425872802734375
1763367248787633000,1.3376328125,-0.062957763671875,0.2075958251953125,0.5262451171875
1763367248797660000,1.347659912109375,0.2341156005859375,0.159942626953125,0.689056396484375
1763367248807687000,1.35768701171875,0.7016754150390625,0.1847381591796875,0.84307861328125
1763367248817714000,1.3677138671875,0.65252685546875,0.1805419921875,0.837066650390625
1763367248827741000,1.377740966796875,0.2186279296875,0.083648681640625,0.740570068359375
1763367248837768700,1.387768798828125,-0.2237701416015625,0.024505615234375,0.59033203125
1763367248847796000,1.3977958984375,-0.389373779296875,0.08123779296875,0.532501220703125
1763367248857823000,1.407822998046875,-0.448211669921875,0.17169189453125,0.5267181396484375
1763367248867849700,1.417849609375,-0.4220123291015625,0.1424560546875,0.3467559814453125
1763367248877876700,1.427876708984375,-0.4391937255859375,0.1625213623046875,0.394927978515625
1763367248887904000,1.437904052734375,-0.435546875,0.283843994140625,0.6959381103515625
1763367248897930800,1.4479306640625,-0.3664703369140625,0.30633544921875,0.9486236572265625
1763367248907957800,1.457957763671875,-0.2393646240234375,0.2637939453125,1.2360687255859375
1763367248917985000,1.467985107421875,-0.0190887451171875,0.2021636962890625,1.3181610107421875
1763367248928011800,1.47801171875,0.100799560546875,0.1767120361328125,1.1775970458984375
1763367248938039800,1.488039794921875,0.07843017578125,0.155029296875,1.10443115234375
1763367248948067000,1.498067138671875,0.0581512451171875,0.1737823486328125,1.1886749267578125
1763367248958093800,1.50809375,0.051788330078125,0.184478759765625,1.13885498046875
1763367248968120800,1.518120849609375,0.002593994140625,0.1416473388671875,0.9963531494140625
1763367248978147800,1.52814794921875,-0.0048980712890625,0.1262054443359375,0.88092041015625
1763367248988174800,1.5381748046875,-0.0239105224609375,0.1974334716796875,0.8317718505859375
1763367248998201900,1.548201904296875,-0.013336181640625,0.2979583740234375,0.7443389892578125
1763367249008228900,1.558228759765625,-0.0341796875,0.397613525390625,0.6501617431640625
1763367249018256000,1.568255859375,-0.1135406494140625,0.62298583984375,0.5963592529296875
1763367249028284000,1.578283935546875,-0.1841583251953125,0.9039154052734375,0.58758544921875
1763367249038310700,1.588310546875,-0.27880859375,1.0388641357421875,0.71124267578125
1763367249048338000,1.598337890625,-0.2944183349609375,0.9976043701171875,0.8581695556640625
1763367249058365000,1.608364990234375,-0.189361572265625,0.8590545654296875,0.951751708984375
1763367249068391700,1.6183916015625,0.03326416015625,0.7287445068359375,0.99072265625
1763367249078419000,1.6284189453125,0.1921539306640625,0.591156005859375,1.002838134765625
1763367249088446000,1.638446044921875,0.1745758056640625,0.521942138671875,1.0007476806640625
1763367249098473000,1.648472900390625,-0.0085296630859375,0.4649810791015625,0.871978759765625
1763367249108499700,1.658499755859375,-0.025970458984375,0.41143798828125,0.77166748046875
1763367249118528000,1.668528076171875,0.1036834716796875,0.446044921875,0.70379638671875
1763367249128554800,1.6785546875,0.1435394287109375,0.443756103515625,0.6280364990234375
1763367249138581800,1.688581787109375,-0.0892333984375,0.3300323486328125,0.613494873046875
1763367249148609000,1.698609130859375,-0.2160797119140625,0.1732177734375,0.5253753662109375
1763367249158635800,1.7086357421875,-0.2796478271484375,0.2512664794921875,0.598907470703125
1763367249168662800,1.718662841796875,-0.3336334228515625,0.698150634765625,0.8550872802734375
1763367249178690000,1.72868994140625,-0.303497314453125,1.169891357421875,1.006378173828125
1763367249188716800,1.738716796875,-0.2735443115234375,1.3721923828125,1.035003662109375
1763367249198743800,1.748743896484375,-0.326080322265625,1.1880035400390625,0.934539794921875
1763367249208770800,1.758770751953125,-0.3422088623046875,0.654388427734375,0.692962646484375
1763367249218798800,1.768798828125,-0.1095733642578125,0.4850921630859375,0.6878509521484375
1763367249228825900,1.778825927734375,0.092071533203125,0.54681396484375,0.7607269287109375
1763367249238852900,1.788852783203125,0.13446044921875,0.5309906005859375,0.6998291015625
1763367249248879900,1.7988798828125,0.05792236328125,0.4693756103515625,0.5826416015625
1763367249258907000,1.808906982421875,-0.06341552734375,0.3822174072265625,0.4424591064453125
1763367249268934000,1.818933837890625,-0.1479339599609375,0.3587188720703125,0.4155120849609375
1763367249278961000,1.8289609375,-0.327301025390625,0.5039520263671875,0.6005706787109375
1763367249288988000,1.83898779296875,-0.3497772216796875,0.6671142578125,0.838470458984375
1763367249299015000,1.849014892578125,-0.1968994140625,0.7638092041015625,1.043487548828125
1763367249309043000,1.85904296875,-0.0930633544921875,0.8533477783203125,1.231842041015625
1763367249319070000,1.869070068359375,-0.105072021484375,0.872100830078125,1.19024658203125
1763367249329096700,1.8790966796875,-0.1823577880859375,0.9095001220703125,1.1605682373046875
1763367249339124000,1.8891240234375,-0.3663482666015625,0.934539794921875,1.1698455810546875
1763367249349151000,1.89915087890625,-0.5977783203125,0.9432525634765625,1.1739349365234375
1763367249359177700,1.909177734375,-0.727935791015625,0.8339691162109375,1.1430511474609375
1763367249369204700,1.919204833984375,-0.6389923095703125,0.725067138671875,1.083343505859375
1763367249379232000,1.92923193359375,-0.4755401611328125,0.468902587890625,0.8687744140625
1763367249389258800,1.9392587890625,-0.2595367431640625,0.2945404052734375,0.7177581787109375
1763367249399285800,1.94928564453125,-0.0722198486328125,0.3276214599609375,0.6521453857421875
1763367249409313800,1.959313720703125,0.0235443115234375,0.3503875732421875,0.5721588134765625
1763367249419341300,1.96934130859375,0.1474761962890625,0.4312896728515625,0.5160675048828125
1763367249429368600,1.97936865234375,0.2030181884765625,0.546905517578125,0.4603271484375
1763367249439395300,1.989395263671875,0.2541046142578125,0.577880859375,0.3963165283203125
1763367249449422300,1.99942236328125,0.23895263671875,0.6026153564453125,0.361297607421875
1763367249459449300,2.009449462890625,0.214385986328125,0.713897705078125,0.227081298828125
1763367249469476400,2.019476318359375,0.620574951171875,1.0857696533203125,0.16900634765625
1763367249479503400,2.02950341796875,0.69000244140625,1.425323486328125,0.1537017822265625
1763367249489530400,2.0395302734375,-0.1000213623046875,1.21209716796875,0.050323486328125
1763367249499557400,2.049557373046875,-0.32391357421875,1.2152099609375,0.1410369873046875
1763367249509585400,2.05958544921875,-0.2923583984375,1.3026580810546875,0.252593994140625
1763367249519612400,2.0696123046875,-0.0782012939453125,1.23114013671875,0.312713623046875
1763367249529639400,2.079639404296875,-0.0472564697265625,0.887847900390625,0.32989501953125
1763367249539666400,2.08966650390625,-0.064178466796875,0.736114501953125,0.3204193115234375
1763367249549693400,2.099693359375,-0.03729248046875,0.7124176025390625,0.2890777587890625
1763367249559720400,2.109720458984375,0.10247802734375,0.749908447265625,0.2709808349609375
1763367249569747500,2.11974755859375,0.317626953125,0.7941741943359375,0.251922607421875
1763367249579774500,2.1297744140625,0.5550689697265625,0.877899169921875,0.2525177001953125
1763367249589801200,2.13980126953125,0.5947418212890625,0.9408721923828125,0.2171630859375
1763367249599829500,2.14982958984375,0.625885009765625,1.0373077392578125,0.2163848876953125
1763367249609856300,2.159856201171875,0.5175018310546875,1.04156494140625,0.1844329833984375
1763367249619883300,2.16988330078125,0.345733642578125,0.926849365234375,0.116607666015625
1763367249629910500,2.17991064453125,0.267181396484375,0.9196929931640625,0.08319091796875
1763367249639937300,2.189937255859375,0.187225341796875,1.01324462890625,0.0932464599609375
1763367249649964300,2.19996435546875,0.12982177734375,1.1760406494140625,0.1583251953125
1763367249659991600,2.209991455078125,0.1593780517578125,1.252899169921875,0.211212158203125
1763367249670018600,2.2200185546875,0.0553131103515625,1.205413818359375,0.187530517578125
1763367249680045300,2.23004541015625,0.036285400390625,1.260009765625,0.2247314453125
1763367249690072300,2.240072265625,0.1869049072265625,1.3115234375,0.2604217529296875
1763367249700100400,2.250100341796875,0.3724822998046875,1.3498077392578125,0.2755126953125
1763367249710127400,2.26012744140625,0.69476318359375,1.3304595947265625,0.1965179443359375
1763367249720154400,2.270154296875,0.45404052734375,1.301239013671875,0.0182952880859375
1763367249730181400,2.280181396484375,-0.1711883544921875,1.381439208984375,0.162384033203125
1763367249740208400,2.29020849609375,0.05572509765625,1.0688629150390625,0.1460113525390625
1763367249750235400,2.3002353515625,0.22265625,0.81964111328125,0.096466064453125
1763367249760262400,2.310262451171875,0.2150726318359375,0.7139434814453125,0.04803466796875
1763367249770289400,2.320289306640625,0.221343994140625,0.63885498046875,-0.005126953125
1763367249780316400,2.33031640625,0.235321044921875,0.6035003662109375,-0.039703369140625
1763367249790343200,2.34034326171875,0.2210235595703125,0.5790252685546875,0.041656494140625
1763367249800371500,2.350371337890625,0.18035888671875,0.535064697265625,0.058380126953125
1763367249810398500,2.3603984375,0.2402801513671875,0.5574951171875,0.0219268798828125
1763367249820425500,2.370425537109375,0.1362152099609375,0.5899658203125,0.0506744384765625
1763367249830452500,2.380452392578125,0.136444091796875,0.5614013671875,0.0653839111328125
1763367249840479500,2.3904794921875,0.185791015625,0.565521240234375,0.09271240234375
1763367249850506200,2.40050634765625,0.2240753173828125,0.5952301025390625,0.123992919921875
1763367249860533500,2.410533447265625,0.2684478759765625,0.6252593994140625,0.1591949462890625
1763367249870560500,2.420560546875,0.3193206787109375,0.65521240234375,0.198150634765625
1763367249880587300,2.430587158203125,0.3528594970703125,0.6866302490234375,0.248809814453125
1763367249890614500,2.440614501953125,0.4285888671875,0.7454071044921875,0.279052734375
1763367249900642300,2.450642333984375,0.4996795654296875,0.8323516845703125,0.2917327880859375
1763367249910669300,2.46066943359375,0.6245269775390625,0.9618072509765625,0.3087158203125
1763367249920696600,2.470696533203125,0.7619171142578125,1.10491943359375,0.3214569091796875
1763367249930723300,2.480723388671875,0.930572509765625,1.23876953125,0.3300018310546875
1763367249940750300,2.490750244140625,1.060821533203125,1.3355560302734375,0.3486480712890625
1763367249950777300,2.50077734375,1.14337158203125,1.4032135009765625,0.3967742919921875
1763367249960804400,2.510804443359375,0.995941162109375,1.407135009765625,0.4462432861328125
1763367249970831400,2.520831298828125,0.6697235107421875,1.31622314453125,0.453826904296875
1763367249980858400,2.5308583984375,0.4209136962890625,1.157135009765625,0.4142913818359375
1763367249990885400,2.540885498046875,0.2869110107421875,0.9849853515625,0.341094970703125
1763367250000913400,2.550913330078125,0.290374755859375,0.8131866455078125,0.22186279296875
1763367250010940400,2.5609404296875,0.3878021240234375,0.6808624267578125,0.070587158203125
1763367250020967400,2.570967529296875,0.3815765380859375,0.6274566650390625,-0.0467071533203125
1763367250030994400,2.580994384765625,0.355224609375,0.7027435302734375,-0.18853759765625
1763367250041021400,2.591021484375,0.503662109375,0.944671630859375,-0.2714996337890625
1763367250051048400,2.60104833984375,0.66455078125,1.2844390869140625,-0.1963958740234375
1763367250061075500,2.611075439453125,0.840179443359375,1.6393585205078125,-0.0277557373046875
1763367250071102500,2.6211025390625,0.8082275390625,1.912078857421875,0.1670074462890625
1763367250081129200,2.631129150390625,0.5147552490234375,2.0638885498046875,0.3446807861328125
1763367250091156500,2.641156494140625,0.3394927978515625,2.01971435546875,0.4065093994140625
1763367250101184300,2.651184326171875,0.3857879638671875,1.696075439453125,0.3954620361328125
1763367250111211300,2.661211181640625,0.1050872802734375,0.88848876953125,0.3419189453125
1763367250121238500,2.671238525390625,-0.2121429443359375,0.1274871826171875,-0.08795166015625
1763367250131265300,2.681265380859375,-0.3009033203125,-0.20953369140625,-0.52703857421875
1763367250141292300,2.691292236328125,-0.307464599609375,-0.229034423828125,-0.78155517578125
1763367250151319600,2.701319580078125,-0.281036376953125,-0.0567779541015625,-0.840240478515625
1763367250161346600,2.7113466796875,0.0380706787109375,0.2235107421875,-0.8715667724609375
1763367250171373300,2.721373291015625,0.5236053466796875,0.751861572265625,-0.5977325439453125
1763367250181400300,2.731400390625,0.5117645263671875,1.30889892578125,0.0363006591796875
1763367250191427600,2.741427490234375,-0.08062744140625,1.539642333984375,0.4817962646484375
1763367250201455400,2.751455322265625,-0.484527587890625,1.5244140625,0.5747222900390625
1763367250211482400,2.761482421875,-0.49688720703125,1.4257049560546875,0.4535369873046875
1763367250221509400,2.77150927734375,-0.3299407958984375,1.338104248046875,0.3308563232421875
1763367250231536400,2.781536376953125,-0.038848876953125,1.19482421875,0.20440673828125
1763367250241563400,2.7915634765625,0.2043304443359375,0.96612548828125,0.1064605712890625
1763367250251590400,2.80159033203125,0.22882080078125,0.8447265625,0.115081787109375
1763367250261617400,2.811617431640625,0.0856475830078125,0.8184814453125,0.1654815673828125
1763367250271644400,2.82164453125,-0.04510498046875,0.8455810546875,0.2073516845703125
1763367250281671200,2.831671142578125,-0.113983154296875,0.8799285888671875,0.2219390869140625
1763367250291699500,2.841699462890625,-0.0853729248046875,0.854248046875,0.192657470703125
1763367250301726500,2.8517265625,0.02099609375,0.7878570556640625,0.15191650390625
1763367250311753500,2.86175341796875,0.0921630859375,0.7314453125,0.1195831298828125
1763367250321780500,2.871780517578125,0.1374359130859375,0.682281494140625,0.102081298828125
1763367250331807500,2.881807373046875,0.1533355712890625,0.6500396728515625,0.11578369140625
1763367250341834200,2.891834228515625,0.1370391845703125,0.614349365234375,0.1295013427734375
1763367250351861500,2.901861572265625,0.075958251953125,0.58038330078125,0.1404571533203125
1763367250361888500,2.911888427734375,0.0007781982421875,0.5487823486328125,0.1434783935546875
1763367250371915300,2.921915283203125,-0.1056671142578125,0.5434417724609375,0.11773681640625
1763367250381942500,2.931942626953125,-0.2332611083984375,0.56414794921875,0.09893798828125
1763367250391970300,2.94197021484375,-0.383514404296875,0.57080078125,0.081207275390625
1763367250401997300,2.951997314453125,-0.4627532958984375,0.579925537109375,0.086029052734375
1763367250412024600,2.962024658203125,-0.4949951171875,0.59686279296875,0.0980987548828125
1763367250422051000,2.972051025390625,-0.5174407958984375,0.6229248046875,0.1000213623046875
1763367250432077800,2.982077880859375,-0.4564361572265625,0.774871826171875,0.10235595703125
1763367250442104800,2.992104736328125,-0.3450927734375,1.2666168212890625,-0.069091796875
1763367250452132000,3.002132080078125,-0.1671905517578125,2.4032135009765625,-0.18780517578125
1763367250462158800,3.012158935546875,-0.1825103759765625,3.24078369140625,0.29742431640625
1763367250472185900,3.022185791015625,-0.210296630859375,2.3524932861328125,0.7598876953125
1763367250482214000,3.0322138671875,-0.0661773681640625,1.268890380859375,0.4696044921875
1763367250492241000,3.042240966796875,0.16595458984375,0.8074798583984375,0.225128173828125
1763367250502268000,3.052267822265625,0.244537353515625,0.6413421630859375,0.216094970703125
1763367250512295000,3.062294921875,0.11700439453125,0.7068023681640625,0.201080322265625
1763367250522322000,3.072322021484375,0.00152587890625,0.7577362060546875,0.06793212890625
1763367250532349000,3.082348876953125,-0.0184326171875,0.8023529052734375,-0.0317840576171875
1763367250542375700,3.092375732421875,-0.0581207275390625,0.856292724609375,-0.0988311767578125
1763367250552403000,3.10240283203125,-0.1029510498046875,0.8789520263671875,-0.156005859375
1763367250562430000,3.112429931640625,-0.1492156982421875,0.8964996337890625,-0.1607818603515625
1763367250572457700,3.122457763671875,-0.2054443359375,0.9058074951171875,-0.13763427734375
1763367250582485000,3.132485107421875,-0.2255859375,0.894805908203125,-0.118560791015625
1763367250592512000,3.142511962890625,-0.2181854248046875,0.9139404296875,-0.0718841552734375
1763367250602538800,3.152538818359375,-0.1895751953125,0.9672088623046875,-0.01495361328125
1763367250612566000,3.16256591796875,-0.145599365234375,0.99102783203125,0.048492431640625
1763367250622593000,3.172593017578125,-0.0848846435546875,0.9974822998046875,0.1234283447265625
1763367250632619800,3.182619873046875,0.0027618408203125,1.028839111328125,0.195892333984375
1763367250642646800,3.192646728515625,0.1249542236328125,1.079559326171875,0.26025390625
1763367250652674000,3.202674072265625,0.24249267578125,1.1511688232421875,0.3306732177734375
1763367250662701800,3.212701904296875,0.2999420166015625,1.1891326904296875,0.3664093017578125
1763367250672729000,3.22272900390625,0.2733612060546875,1.2189483642578125,0.3907928466796875
1763367250682755800,3.232755859375,0.156707763671875,1.2059783935546875,0.371124267578125
1763367250692782800,3.242782958984375,0.020965576171875,1.20220947265625,0.352020263671875
1763367250702809900,3.252809814453125,-0.0545501708984375,1.14215087890625,0.3106536865234375
1763367250712836900,3.2628369140625,-0.046722412109375,1.0242462158203125,0.21795654296875
1763367250722863900,3.27286376953125,-0.0401153564453125,1.009857177734375,0.1849517822265625
1763367250732891000,3.282890869140625,-0.0823516845703125,1.1062774658203125,0.174713134765625
1763367250742918000,3.29291796875,-0.15911865234375,1.1803436279296875,0.122100830078125
1763367250752946000,3.30294580078125,-0.249481201171875,1.1616973876953125,0.04156494140625
1763367250762973000,3.312972900390625,-0.3265533447265625,1.1121368408203125,0.0050048828125
1763367250773000000,3.323,-0.3588409423828125,1.1507110595703125,0.081085205078125
1763367250783027000,3.33302685546875,-0.3446044921875,1.2419586181640625,0.1810302734375
1763367250793054000,3.343053955078125,-0.29925537109375,1.4347991943359375,0.2433929443359375
1763367250803080700,3.353080810546875,-0.226043701171875,1.6049041748046875,0.2722625732421875
1763367250813108000,3.36310791015625,-0.0641326904296875,1.5996856689453125,0.1557769775390625
1763367250823135000,3.373135009765625,0.1559906005859375,1.3983917236328125,-0.0772857666015625
1763367250833161700,3.38316162109375,0.3198394775390625,1.13909912109375,-0.3089752197265625
1763367250843190000,3.39318994140625,0.3970794677734375,0.940460205078125,-0.4372406005859375
1763367250853216800,3.403216796875,0.4420928955078125,0.7713775634765625,-0.5193023681640625
1763367250863243800,3.413243896484375,0.43389892578125,0.6743927001953125,-0.567474365234375
1763367250873271000,3.42327099609375,0.4174957275390625,0.76025390625,-0.54290771484375
1763367250883298000,3.433298095703125,0.3307037353515625,1.0125885009765625,-0.3948211669921875
1763367250893324800,3.44332470703125,0.1858673095703125,1.253875732421875,-0.2910308837890625
1763367250903351800,3.453351806640625,-0.042266845703125,1.49029541015625,-0.2351226806640625
1763367250913379000,3.463379150390625,-0.199798583984375,1.57012939453125,-0.2771148681640625
1763367250923405800,3.47340576171875,-0.29937744140625,1.4775848388671875,-0.3301544189453125
1763367250933434000,3.48343408203125,-0.2705078125,1.34869384765625,-0.268035888671875
1763367250943460900,3.4934609375,-0.270904541015625,1.2054595947265625,-0.1146240234375
1763367250953488000,3.50348779296875,-0.310516357421875,1.1165313720703125,0.00079345703125
1763367250963515000,3.513514892578125,-0.4130706787109375,1.0716400146484375,0.06787109375
1763367250973542000,3.5235419921875,-0.4444427490234375,1.025665283203125,0.1322021484375
1763367250983569000,3.53356884765625,-0.4114837646484375,1.00482177734375,0.183135986328125
1763367250993596000,3.543595947265625,-0.3292388916015625,1.041229248046875,0.2621002197265625
1763367251003623000,3.553622802734375,-0.1024627685546875,1.06488037109375,0.3037872314453125
1763367251013650000,3.56364990234375,0.1197052001953125,1.1055145263671875,0.299896240234375
1763367251023678000,3.573677978515625,0.183990478515625,1.11846923828125,0.24749755859375
1763367251033705000,3.583705078125,0.1533660888671875,1.107818603515625,0.142913818359375
1763367251043732000,3.59373193359375,0.09649658203125,1.0703582763671875,0.044097900390625
1763367251053759000,3.603759033203125,0.0079803466796875,1.0101165771484375,-0.019378662109375
1763367251063785700,3.61378564453125,-0.1153411865234375,0.9656982421875,-0.047271728515625
1763367251073813000,3.62381298828125,-0.1902313232421875,0.91998291015625,-0.0665283203125
1763367251083840000,3.633840087890625,-0.138916015625,0.88006591796875,-0.076416015625
1763367251093866800,3.64386669921875,-0.103424072265625,0.8355865478515625,-0.086395263671875
1763367251103894000,3.65389404296875,-0.05517578125,0.7947235107421875,-0.0972900390625
1763367251113921800,3.663921875,-0.002777099609375,0.7706146240234375,-0.0750274658203125
1763367251123948800,3.67394873046875,0.02679443359375,0.772491455078125,-0.053375244140625
1763367251133976000,3.68397607421875,-0.049285888671875,0.7699432373046875,-0.042572021484375
1763367251144002800,3.6940029296875,-0.0180816650390625,0.743133544921875,-0.0615081787109375
1763367251154029800,3.70402978515625,0.00787353515625,0.7168121337890625,-0.0811309814453125
1763367251164057000,3.71405712890625,0.029510498046875,0.7305145263671875,-0.052581787109375
1763367251174083800,3.724083740234375,0.1078338623046875,0.714019775390625,-0.0549163818359375
1763367251184110800,3.73411083984375,0.1412353515625,0.6729888916015625,-0.0701446533203125
1763367251194139000,3.744138916015625,0.163818359375,0.6367950439453125,-0.0836944580078125
1763367251204166000,3.754165771484375,0.181976318359375,0.593994140625,-0.097564697265625
1763367251214193000,3.76419287109375,0.1699981689453125,0.549285888671875,-0.1070556640625
1763367251224220000,3.774219970703125,0.1207275390625,0.522857666015625,-0.10247802734375
1763367251234247000,3.784246826171875,0.1007232666015625,0.5162506103515625,-0.071685791015625
1763367251244274000,3.79427392578125,0.093292236328125,0.52691650390625,-0.0381622314453125
1763367251254301000,3.804301025390625,0.1152496337890625,0.5305938720703125,-0.0118560791015625
1763367251264328000,3.814327880859375,0.1251068115234375,0.51202392578125,-0.001800537109375
1763367251274355000,3.82435498046875,0.1602325439453125,0.508758544921875,0.0230865478515625
1763367251284382700,3.8343828125,0.208404541015625,0.547119140625,0.0258331298828125
1763367251294410000,3.844409912109375,0.226959228515625,0.6100616455078125,0.007354736328125
1763367251304437000,3.85443701171875,0.2847137451171875,0.67633056640625,-0.019287109375
1763367251314463700,3.864463623046875,0.4221649169921875,0.7581939697265625,-0.0264739990234375
1763367251324490800,3.87449072265625,0.617034912109375,0.872467041015625,-0.016143798828125
1763367251334518000,3.88451806640625,0.8090972900390625,1.0193023681640625,-0.024261474609375
1763367251344544800,3.894544677734375,0.9961090087890625,1.2213592529296875,-0.049713134765625
1763367251354571800,3.90457177734375,1.216339111328125,1.4857330322265625,-0.0522918701171875
1763367251364599000,3.91459912109375,1.361175537109375,1.7485809326171875,0.01171875
1763367251374626800,3.924626708984375,1.30194091796875,1.846466064453125,0.1471710205078125
1763367251384653800,3.93465380859375,1.1019744873046875,1.683868408203125,0.2168121337890625
1763367251394681000,3.94468115234375,0.8425445556640625,1.4035797119140625,0.185394287109375
1763367251404707800,3.954707763671875,0.6111602783203125,1.1684112548828125,0.1500396728515625
1763367251414734800,3.96473486328125,0.44732666015625,0.9712066650390625,0.118896484375
1763367251424762000,3.97476220703125,0.3629302978515625,0.8092803955078125,0.06976318359375
1763367251434788900,3.984788818359375,0.25946044921875,0.66888427734375,-0.0024566650390625
1763367251444816000,3.99481591796875,0.260589599609375,0.6841583251953125,-0.053741455078125
1763367251454844000,4.004843994140625,0.37835693359375,0.7664031982421875,-0.2179412841796875
1763367251464871000,4.014870849609375,0.6622314453125,0.9874725341796875,-0.3967742919921875
1763367251474898000,4.02489794921875,0.9285888671875,1.348358154296875,-0.3928375244140625
1763367251484924700,4.034924560546875,0.7818603515625,1.6800384521484375,-0.243499755859375
1763367251494952000,4.044951904296875,0.4762725830078125,1.9893646240234375,-0.093170166015625
1763367251504979000,4.05497900390625,0.2662353515625,2.0758819580078125,-0.036834716796875
1763367251515006000,4.065005859375,0.230194091796875,1.82537841796875,-0.082855224609375
1763367251525033000,4.075032958984375,0.3673095703125,1.2703399658203125,-0.089385986328125
1763367251535060000,4.08506005859375,0.1633453369140625,0.4932708740234375,-0.093170166015625
1763367251545087700,4.095087646484375,-0.468536376953125,-0.0771484375,-0.198211669921875
1763367251555115000,4.105114990234375,-0.9374237060546875,-0.3938751220703125,-0.447021484375
1763367251565142000,4.11514208984375,-0.928619384765625,-0.4380950927734375,-0.699188232421875
1763367251575168800,4.125168701171875,-0.288787841796875,-0.260894775390625,-0.7666473388671875
1763367251585196000,4.135196044921875,0.9244537353515625,0.03802490234375,-0.8225250244140625
1763367251595223000,4.14522314453125,1.223785400390625,0.9042816162109375,-0.442169189453125
1763367251605249800,4.155249755859375,0.13775634765625,1.7493896484375,0.0920562744140625
1763367251615276800,4.16527685546875,-0.6560516357421875,1.944183349609375,0.3582000732421875
1763367251625304000,4.175303955078125,-0.6315155029296875,1.8272857666015625,0.4890594482421875
1763367251635331800,4.185331787109375,-0.3399810791015625,1.5728912353515625,0.3562774658203125
1763367251645358800,4.19535888671875,-0.1379852294921875,1.2227325439453125,0.1460113525390625
1763367251655385900,4.2053857421875,0.0228729248046875,0.9385833740234375,0.0194854736328125
1763367251665412900,4.215412841796875,0.129791259765625,0.8058929443359375,-0.0072021484375
1763367251675439900,4.22543994140625,0.0697174072265625,0.775909423828125,-0.01934814453125
1763367251685467000,4.235466796875,-0.0533599853515625,0.79241943359375,-0.0408172607421875
1763367251695494000,4.245493896484375,-0.215118408203125,0.857757568359375,-0.053192138671875
1763367251705521000,4.25552099609375,-0.315826416015625,0.9540557861328125,-0.0548095703125
1763367251715548000,4.2655478515625,-0.341796875,1.039794921875,-0.0153656005859375
1763367251725576000,4.275575927734375,-0.261077880859375,1.085205078125,0.04217529296875
1763367251735603000,4.28560302734375,-0.0126190185546875,1.095123291015625,0.0724639892578125
1763367251745629700,4.295629638671875,0.1940155029296875,1.0440521240234375,0.0635833740234375
1763367251755657000,4.305656982421875,0.269256591796875,0.97467041015625,0.0305938720703125
1763367251765684000,4.31568408203125,0.22210693359375,0.91204833984375,0.004119873046875
1763367251775710700,4.325710693359375,0.108673095703125,0.8909759521484375,0.00067138671875
1763367251785738000,4.335738037109375,-0.034637451171875,0.910003662109375,0.0326995849609375
1763367251795765000,4.345764892578125,-0.1481170654296875,0.9899749755859375,0.0935211181640625
1763367251805792800,4.355792724609375,-0.1845550537109375,1.0648956298828125,0.1238250732421875
1763367251815820000,4.365820068359375,-0.18267822265625,1.0661773681640625,0.1082916259765625
1763367251825846800,4.3758466796875,-0.1254119873046875,1.0428466796875,0.1040496826171875
1763367251835873800,4.385873779296875,-0.039703369140625,1.0272216796875,0.1062164306640625
1763367251845901000,4.395901123046875,0.0391387939453125,0.99993896484375,0.1099090576171875
1763367251855928000,4.405927978515625,0.0525054931640625,0.9678955078125,0.1168670654296875
1763367251865954800,4.415954833984375,0.031280517578125,0.9649658203125,0.1194000244140625
1763367251875981800,4.42598193359375,0.022430419921875,0.9837799072265625,0.107666015625
1763367251886009000,4.436009033203125,0.0076141357421875,0.9942169189453125,0.111358642578125
1763367251896036900,4.446036865234375,0.0366363525390625,0.97576904296875,0.0746002197265625
1763367251906064000,4.45606396484375,0.0697479248046875,0.9460906982421875,0.0190277099609375
1763367251916091000,4.4660908203125,0.080474853515625,0.9031982421875,-0.0340118408203125
1763367251926118000,4.476117919921875,0.0897216796875,0.877685546875,-0.06396484375
1763367251936145000,4.486144775390625,0.094390869140625,0.8577117919921875,-0.089019775390625
1763367251946172000,4.496171875,0.079254150390625,0.8431396484375,-0.107452392578125
1763367251956199000,4.506198974609375,0.0537872314453125,0.8364410400390625,-0.1131439208984375
1763367251966226000,4.516225830078125,0.0567169189453125,0.8362274169921875,-0.1042327880859375
1763367251976254000,4.52625390625,0.052093505859375,0.8323822021484375,-0.088592529296875
1763367251986281000,4.536281005859375,0.00579833984375,0.8262939453125,-0.0791778564453125
1763367251996308000,4.546307861328125,-0.065338134765625,0.8349761962890625,-0.0808258056640625
1763367252006334700,4.556334716796875,-0.1182098388671875,0.8569793701171875,-0.084228515625
1763367252016362000,4.566362060546875,-0.1764373779296875,0.8847808837890625,-0.07318115234375
1763367252026389000,4.576388916015625,-0.2580108642578125,0.9256591796875,-0.0713043212890625
1763367252036415700,4.586415771484375,-0.29052734375,1.03570556640625,-0.0501251220703125
1763367252046443000,4.596443115234375,-0.2015533447265625,1.198272705078125,0.05255126953125
1763367252056470000,4.606469970703125,-0.0381317138671875,1.2698974609375,0.1671295166015625
1763367252066497800,4.616497802734375,0.1288299560546875,1.2420196533203125,0.255706787109375
1763367252076525000,4.626525146484375,0.280914306640625,1.1469573974609375,0.308746337890625
1763367252086551800,4.6365517578125,0.3406219482421875,1.1309356689453125,0.365325927734375
1763367252096578800,4.646578857421875,0.320587158203125,1.1476898193359375,0.396697998046875
1763367252106606000,4.656606201171875,0.2566070556640625,1.123260498046875,0.333709716796875
1763367252116632800,4.6666328125,0.154052734375,1.191009521484375,0.233551025390625
1763367252126659800,4.676659912109375,0.1336517333984375,1.1589813232421875,0.10986328125
1763367252136686800,4.686686767578125,0.1832275390625,1.068450927734375,0.0169219970703125
1763367252146715000,4.69671484375,0.156097412109375,1.01702880859375,-0.004730224609375
1763367252156742000,4.706741943359375,0.0476531982421875,0.980865478515625,-0.0414276123046875
1763367252166769000,4.716768798828125,-0.0813446044921875,1.01953125,-0.0734405517578125
1763367252176796000,4.7267958984375,-0.1873931884765625,1.106475830078125,-0.0225982666015625
1763367252186823000,4.736822998046875,-0.22943115234375,1.213775634765625,0.0945587158203125
1763367252196850000,4.746849853515625,-0.2311553955078125,1.2566986083984375,0.19317626953125
1763367252206877000,4.756876953125,-0.2252960205078125,1.33502197265625,0.2953338623046875
1763367252216904000,4.766904052734375,-0.2305450439453125,1.41107177734375,0.3493194580078125
1763367252226931000,4.776930908203125,-0.2264251708984375,1.4844207763671875,0.3033447265625
1763367252236959000,4.786958984375,-0.1043853759765625,1.44049072265625,0.160797119140625
1763367252246986000,4.796986083984375,0.014984130859375,1.2739105224609375,-0.0504608154296875
1763367252257012700,4.8070126953125,0.0974578857421875,1.109100341796875,-0.2442169189453125
1763367252267040000,4.8170400390625,0.2628326416015625,0.953155517578125,-0.388763427734375
1763367252277067000,4.82706689453125,0.534393310546875,0.823455810546875,-0.5169830322265625
1763367252287093800,4.83709375,0.750274658203125,0.8109130859375,-0.568328857421875
1763367252297120800,4.847120849609375,0.5657196044921875,1.0258636474609375,-0.3959503173828125
1763367252307148000,4.85714794921875,0.30438232421875,1.2903289794921875,-0.251434326171875
1763367252317175800,4.86717578125,0.068756103515625,1.5072174072265625,-0.2402496337890625
1763367252327202800,4.877202880859375,-0.1627960205078125,1.6496429443359375,-0.262359619140625
1763367252337230000,4.88722998046875,-0.2809906005859375,1.61480712890625,-0.281158447265625
1763367252347256800,4.8972568359375,-0.2958984375,1.4562530517578125,-0.259307861328125
1763367252357283800,4.907283935546875,-0.3397979736328125,1.296478271484375,-0.1779022216796875
1763367252367311000,4.91731103515625,-0.3992919921875,1.1555023193359375,-0.0999298095703125
1763367252377337900,4.927337890625,-0.4024200439453125,1.077301025390625,-0.02191162109375
1763367252387364900,4.93736474609375,-0.3924102783203125,1.0507965087890625,0.0625762939453125
1763367252397392000,4.947391845703125,-0.3816375732421875,1.036834716796875,0.1290283203125
1763367252407419000,4.9574189453125,-0.29656982421875,1.0516204833984375,0.1865692138671875
1763367252417447000,4.967447021484375,-0.01947021484375,1.0742034912109375,0.2172088623046875
1763367252427474000,4.977473876953125,0.1953887939453125,1.099761962890625,0.197845458984375
1763367252437501000,4.9875009765625,0.21588134765625,1.0680694580078125,0.0755462646484375
1763367252447528000,4.99752783203125,0.1414947509765625,1.0342559814453125,-0.013580322265625
1763367252457555000,5.007554931640625,0.049224853515625,0.980194091796875,-0.1143646240234375
1763367252467582000,5.01758203125,-0.0753936767578125,0.9410400390625,-0.1798248291015625
1763367252477609000,5.02760888671875,-0.26910400390625,0.957305908203125,-0.149658203125
1763367252487636000,5.037635986328125,-0.226409912109375,0.9258880615234375,-0.0950469970703125
1763367252497664000,5.0476640625,-0.023834228515625,0.863189697265625,-0.0373992919921875
1763367252507691000,5.05769091796875,0.1016082763671875,0.8014068603515625,0.0026092529296875
1763367252517718000,5.067718017578125,0.081451416015625,0.77374267578125,0.03570556640625
1763367252527745000,5.0777451171875,0.034027099609375,0.750091552734375,0.0419921875
1763367252537772000,5.08777197265625,0.024139404296875,0.7465667724609375,0.03436279296875
1763367252547798800,5.097798828125,0.041290283203125,0.740478515625,0.0008697509765625
1763367252557826000,5.107825927734375,0.0441131591796875,0.7386627197265625,-0.0132598876953125
1763367252567853000,5.11785302734375,0.0538330078125,0.7349853515625,-0.02056884765625
1763367252577879800,5.1278798828125,0.06884765625,0.71820068359375,-0.04669189453125
1763367252587908000,5.137908203125,0.081451416015625,0.7062530517578125,-0.07366943359375
1763367252597934800,5.147934814453125,0.065948486328125,0.6646728515625,-0.089385986328125
1763367252607961900,5.1579619140625,0.0843048095703125,0.61846923828125,-0.1093902587890625
1763367252617989000,5.167989013671875,0.06878662109375,0.5725860595703125,-0.112640380859375
1763367252628015900,5.178015869140625,0.0485076904296875,0.5251007080078125,-0.1013031005859375
1763367252638043000,5.18804296875,0.0516204833984375,0.491607666015625,-0.0950775146484375
1763367252648070100,5.198070068359375,0.01800537109375,0.5023956298828125,-0.07708740234375
1763367252658097200,5.20809716796875,0.035858154296875,0.52459716796875,-0.06439208984375
1763367252668124000,5.2181240234375,0.068450927734375,0.523895263671875,-0.032867431640625
1763367252678152200,5.228152099609375,0.1683349609375,0.5280303955078125,0.0101470947265625
1763367252688179000,5.238178955078125,0.2244415283203125,0.5184326171875,0.009033203125
1763367252698206000,5.2482060546875,0.263214111328125,0.5531463623046875,0.0044403076171875
1763367252708233000,5.25823291015625,0.3150634765625,0.6204833984375,0.0277099609375
1763367252718260000,5.268260009765625,0.3419647216796875,0.7093658447265625,0.043731689453125
1763367252728287000,5.278286865234375,0.4370269775390625,0.8359375,0.063995361328125
1763367252738314000,5.28831396484375,0.61639404296875,0.9816741943359375,0.1154937744140625
1763367252748341000,5.298341064453125,0.9300079345703125,1.1584625244140625,0.17462158203125
1763367252758368000,5.308367919921875,1.1653900146484375,1.3694915771484375,0.1925048828125
1763367252768395800,5.318395751953125,1.30596923828125,1.6065826416015625,0.0955810546875
1763367252778423000,5.328423095703125,1.367340087890625,1.8144073486328125,0.0028228759765625
1763367252788450000,5.338449951171875,1.2436370849609375,1.8602752685546875,0.01171875
1763367252798477000,5.34847705078125,1.026702880859375,1.6466827392578125,0.0683135986328125
1763367252808503800,5.35850390625,0.827117919921875,1.3311920166015625,0.0921478271484375
1763367252818531000,5.368531005859375,0.652130126953125,1.0760955810546875,0.0754852294921875
1763367252828558000,5.37855810546875,0.506866455078125,0.8534088134765625,0.0391998291015625
1763367252838584800,5.388584716796875,0.4057769775390625,0.6498870849609375,-0.0177764892578125
1763367252848612000,5.398612060546875,0.340057373046875,0.5116729736328125,-0.0994720458984375
1763367252858640000,5.408639892578125,0.3563385009765625,0.547515869140625,-0.2244415283203125
1763367252868667000,5.4186669921875,0.431304931640625,0.763916015625,-0.417938232421875
1763367252878694100,5.428694091796875,0.5866241455078125,1.0925445556640625,-0.5571441650390625
1763367252888721000,5.438720947265625,0.6576385498046875,1.4463348388671875,-0.475250244140625
1763367252898748000,5.448747802734375,0.4930572509765625,1.69708251953125,-0.3284759521484375
1763367252908775200,5.458775146484375,0.4238128662109375,1.8298797607421875,-0.2329254150390625
1763367252918802000,5.468802001953125,0.5480499267578125,1.822662353515625,-0.1014404296875
1763367252928829000,5.478828857421875,0.43756103515625,1.5235748291015625,-0.0160369873046875
1763367252938856000,5.48885595703125,0.4775238037109375,1.115386962890625,0.0381011962890625
1763367252948884000,5.498884033203125,0.345489501953125,0.71795654296875,0.14666748046875
1763367252958911000,5.508910888671875,-0.2665252685546875,0.31243896484375,0.1818695068359375
1763367252968938000,5.51893798828125,-0.87725830078125,-0.0301055908203125,-0.0097198486328125
1763367252978965000,5.528965087890625,-1.0158538818359375,-0.2090301513671875,-0.4512481689453125
1763367252988992000,5.538991943359375,-0.5107879638671875,-0.1579132080078125,-0.7869110107421875
1763367252999019000,5.54901904296875,0.567413330078125,0.09393310546875,-0.9034423828125
1763367253009046000,5.5590458984375,1.2933349609375,0.68157958984375,-0.79266357421875
1763367253019073000,5.569072998046875,0.431121826171875,1.476776123046875,-0.3631591796875
1763367253029100000,5.57910009765625,-0.550811767578125,1.75335693359375,-0.01446533203125
1763367253039126800,5.589126708984375,-0.7437286376953125,1.72027587890625,0.356689453125
1763367253049155000,5.599155029296875,-0.4530792236328125,1.5429840087890625,0.369110107421875
1763367253059181800,5.609181884765625,-0.1876678466796875,1.2633819580078125,0.2303466796875
1763367253069209000,5.619208984375,-0.0873565673828125,0.994476318359375,0.10980224609375
1763367253079236000,5.629236083984375,-0.0390472412109375,0.83770751953125,0.03277587890625
1763367253089262800,5.639262939453125,-0.0036163330078125,0.79736328125,0.04156494140625
1763367253099289900,5.649289794921875,-0.1187591552734375,0.8527374267578125,0.1065216064453125
1763367253109317000,5.659317138671875,-0.2528839111328125,0.9378814697265625,0.1851959228515625
1763367253119343900,5.66934375,-0.2636260986328125,1.0217437744140625,0.2172088623046875
1763367253129371000,5.679370849609375,-0.091033935546875,1.103057861328125,0.1888885498046875
1763367253139398100,5.689398193359375,0.0337371826171875,1.1380462646484375,0.1623992919921875
1763367253149426000,5.699426025390625,0.092193603515625,1.0860595703125,0.1378173828125
1763367253159453000,5.709452880859375,0.1615753173828125,1.038421630859375,0.1056671142578125
1763367253169480200,5.719480224609375,0.1306304931640625,0.99847412109375,0.058563232421875
1763367253179507000,5.7295068359375,0.075592041015625,0.9536285400390625,-0.0119476318359375
1763367253189534000,5.739533935546875,0.0232391357421875,0.9251861572265625,-0.0639801025390625
1763367253199561000,5.74956103515625,-0.0557403564453125,0.910980224609375,-0.0953521728515625
1763367253209588000,5.759587890625,-0.1257476806640625,0.9372100830078125,-0.08331298828125
1763367253219615000,5.769614990234375,-0.1824493408203125,0.9488983154296875,-0.0627288818359375
1763367253229642000,5.77964208984375,-0.2243804931640625,0.943328857421875,-0.04754638671875
1763367253239670000,5.789669921875,-0.2380218505859375,0.9505767822265625,-0.0340728759765625
1763367253249697000,5.799697021484375,-0.1299591064453125,0.9879913330078125,-0.01483154296875
1763367253259723800,5.809723876953125,0.019195556640625,0.9990386962890625,0.04345703125
1763367253269751000,5.8197509765625,0.1282806396484375,0.9929962158203125,0.1055145263671875
1763367253279778000,5.829778076171875,0.2009124755859375,0.9942169189453125,0.14178466796875
1763367253289805000,5.83980517578125,0.1939544677734375,1.006439208984375,0.17742919921875
1763367253299831800,5.849831787109375,0.1280059814453125,1.0113983154296875,0.1788177490234375
1763367253309859000,5.859859130859375,0.0644989013671875,0.9916839599609375,0.122894287109375
1763367253319886000,5.869885986328125,0.0541534423828125,0.976776123046875,0.0675048828125
1763367253329912800,5.879912841796875,0.0400238037109375,0.9477996826171875,0.028045654296875
1763367253339941000,5.889941162109375,-0.014556884765625,0.90606689453125,-0.0108642578125
1763367253349968000,5.8999677734375,-0.0670928955078125,0.8747406005859375,-0.0486602783203125
1763367253359995000,5.909994873046875,-0.1185760498046875,0.850128173828125,-0.0734405517578125
1763367253370022100,5.920022216796875,-0.1227264404296875,0.8281707763671875,-0.1122894287109375
1763367253380049000,5.930048828125,-0.18505859375,0.7884063720703125,-0.1917724609375
1763367253390076000,5.940075927734375,-0.292022705078125,0.769622802734375,-0.2460784912109375
1763367253400103200,5.950103271484375,-0.3717498779296875,0.819580078125,-0.2097015380859375
1763367253410130000,5.9601298828125,-0.3376007080078125,0.911529541015625,-0.162811279296875
1763367253420157000,5.970156982421875,-0.2689361572265625,0.9413604736328125,-0.1348114013671875
1763367253430185500,5.980185546875,-0.22686767578125,0.960540771484375,-0.0572509765625
1763367253440212700,5.990212646484375,-0.12939453125,0.9887542724609375,0.04071044921875
1763367253450239700,6.00023974609375,-0.0042724609375,1.0573577880859375,0.1494598388671875
1763367253460266500,6.0102666015625,0.1424407958984375,1.1257781982421875,0.2284393310546875
1763367253470293500,6.02029345703125,0.30194091796875,1.1469573974609375,0.2653961181640625
1763367253480320800,6.03032080078125,0.438629150390625,1.1473236083984375,0.2820281982421875
1763367253490347500,6.040347412109375,0.51910400390625,1.1835784912109375,0.294647216796875
1763367253500374500,6.05037451171875,0.4860687255859375,1.1824951171875,0.264892578125
1763367253510401800,6.06040185546875,0.3711090087890625,1.18011474609375,0.218719482421875
1763367253520428500,6.070428466796875,0.2160186767578125,1.1781768798828125,0.198883056640625
1763367253530456600,6.08045654296875,0.082916259765625,1.1678924560546875,0.17156982421875
1763367253540483800,6.09048388671875,-0.033935546875,1.17584228515625,0.135101318359375
1763367253550510600,6.100510498046875,-0.1302490234375,1.123046875,0.09490966796875
1763367253560537600,6.11053759765625,-0.18951416015625,1.0411834716796875,0.0717620849609375
1763367253570564600,6.120564697265625,-0.258941650390625,1.0112762451171875,0.0748138427734375
1763367253580591600,6.130591552734375,-0.2745361328125,1.0492095947265625,0.0690155029296875
1763367253590618600,6.14061865234375,-0.282623291015625,1.1663818359375,0.1352691650390625
1763367253600645600,6.150645751953125,-0.29412841796875,1.251129150390625,0.2047576904296875
1763367253610672600,6.160672607421875,-0.26312255859375,1.264190673828125,0.2531890869140625
1763367253620699600,6.17069970703125,-0.2024688720703125,1.25640869140625,0.304473876953125
1763367253630727400,6.1807275390625,-0.138458251953125,1.2668914794921875,0.352996826171875
1763367253640754700,6.190754638671875,-0.098968505859375,1.3834686279296875,0.415252685546875
1763367253650781700,6.20078173828125,-0.04547119140625,1.3956298828125,0.4211883544921875
1763367253660808400,6.210808349609375,0.1197967529296875,1.2599639892578125,0.30975341796875
1763367253670835500,6.22083544921875,0.3150482177734375,1.0474395751953125,0.0320892333984375
1763367253680862700,6.23086279296875,0.4041290283203125,0.939697265625,-0.2053375244140625
1763367253690889500,6.240889404296875,0.471435546875,0.867218017578125,-0.4056396484375
1763367253700916500,6.25091650390625,0.5586395263671875,0.81396484375,-0.6432952880859375
1763367253710943700,6.26094384765625,0.4886627197265625,0.9321136474609375,-0.75201416015625
1763367253720970800,6.270970703125,0.33221435546875,1.2193756103515625,-0.586822509765625
1763367253730998500,6.28099853515625,0.211181640625,1.5235748291015625,-0.372406005859375
1763367253741025800,6.29102587890625,0.0471343994140625,1.692779541015625,-0.2416229248046875
1763367253751052500,6.301052490234375,-0.1602630615234375,1.6151885986328125,-0.186187744140625
1763367253761079600,6.31107958984375,-0.31524658203125,1.3754119873046875,-0.1707000732421875
1763367253771106800,6.32110693359375,-0.4955596923828125,1.24884033203125,-0.0658111572265625
1763367253781133600,6.331133544921875,-0.6331939697265625,1.197601318359375,0.04364013671875
1763367253791160600,6.34116064453125,-0.6401824951171875,1.1182708740234375,0.08026123046875
1763367253801187600,6.3511875,-0.5740509033203125,1.0521240234375,0.0955657958984375
1763367253811214600,6.361214599609375,-0.4838714599609375,1.0314788818359375,0.1056671142578125
1763367253821241600,6.37124169921875,-0.3352508544921875,1.0872650146484375,0.1001434326171875
1763367253831269400,6.381269287109375,-0.0127105712890625,1.1555633544921875,0.0789947509765625
1763367253841296600,6.391296630859375,0.4505615234375,1.190887451171875,0.0724029541015625
1763367253851323600,6.40132373046875,0.63775634765625,1.2184906005859375,0.0711517333984375
1763367253861350700,6.4113505859375,0.3693389892578125,1.1904449462890625,0.017578125
1763367253871377700,6.421377685546875,-0.1965179443359375,1.221588134765625,0.0977020263671875
1763367253881404700,6.43140478515625,-0.30859375,1.196868896484375,0.1422882080078125
1763367253891431700,6.441431640625,-0.0720062255859375,1.064361572265625,0.0550689697265625
1763367253901458400,6.45145849609375,-0.0987396240234375,0.9082794189453125,0.0235595703125
1763367253911485700,6.461485595703125,-0.1757354736328125,0.803466796875,0.0432281494140625
1763367253921512700,6.4715126953125,-0.0915069580078125,0.74951171875,0.0456390380859375
1763367253931540500,6.48154052734375,-0.09967041015625,0.6967620849609375,0.0263214111328125
1763367253941567700,6.491567626953125,-0.1024932861328125,0.6713714599609375,0.0067901611328125
1763367253951594500,6.501594482421875,-0.0996246337890625,0.6581878662109375,-0.0207977294921875
1763367253961621500,6.51162158203125,-0.103240966796875,0.63262939453125,-0.043975830078125
1763367253971648800,6.521648681640625,-0.081787109375,0.5968017578125,-0.071502685546875
1763367253981675500,6.531675537109375,-0.061309814453125,0.5583038330078125,-0.1012420654296875
1763367253991702500,6.54170263671875,-0.0656890869140625,0.5147857666015625,-0.1128387451171875
1763367254001729800,6.551729736328125,-0.029144287109375,0.4832000732421875,-0.106231689453125
1763367254011756500,6.561756591796875,0.0191497802734375,0.476165771484375,-0.1258544921875
1763367254021783600,6.571783447265625,0.016021728515625,0.472137451171875,-0.1422576904296875
1763367254031811800,6.581811767578125,0.0102996826171875,0.4755706787109375,-0.151885986328125
1763367254041838600,6.591838623046875,0.0144805908203125,0.459747314453125,-0.165496826171875
1763367254051865600,6.601865478515625,0.0550689697265625,0.445343017578125,-0.1712493896484375
1763367254061892600,6.611892578125,0.08203125,0.4608001708984375,-0.14556884765625
1763367254071919600,6.621919677734375,0.1177825927734375,0.5012054443359375,-0.1218719482421875
1763367254081946600,6.631946533203125,0.1718292236328125,0.5279388427734375,-0.1206512451171875
1763367254091973600,6.6419736328125,0.26776123046875,0.552398681640625,-0.1019439697265625
1763367254102000600,6.652000732421875,0.3897705078125,0.600494384765625,-0.077484130859375
1763367254112027600,6.662027587890625,0.5692901611328125,0.6982421875,-0.060455322265625
1763367254122055400,6.672055419921875,0.83837890625,0.8940887451171875,-0.0365753173828125
1763367254132082700,6.682082763671875,1.094512939453125,1.1407928466796875,-0.0229339599609375
1763367254142109700,6.692109619140625,1.322662353515625,1.400970458984375,-0.0316314697265625
1763367254152136400,6.702136474609375,1.470977783203125,1.72998046875,-0.035400390625
1763367254162163500,6.71216357421875,1.438385009765625,1.97235107421875,0.061126708984375
1763367254172190700,6.722190673828125,1.20733642578125,1.868499755859375,0.19000244140625
1763367254182217500,6.732217529296875,0.946136474609375,1.5074615478515625,0.2223663330078125
1763367254192244500,6.742244384765625,0.69146728515625,1.1973419189453125,0.206878662109375
1763367254202271700,6.752271728515625,0.5196533203125,0.996612548828125,0.1627960205078125
1763367254212298800,6.762298828125,0.4726104736328125,0.846832275390625,0.11907958984375
1763367254222326500,6.772326416015625,0.4417724609375,0.73388671875,0.091217041015625
1763367254232353800,6.782353759765625,0.312286376953125,0.7152557373046875,0.014129638671875
1763367254242380500,6.792380615234375,0.3889312744140625,0.8707275390625,-0.139251708984375
1763367254252407600,6.802407470703125,0.590850830078125,1.1152191162109375,-0.2654876708984375
1763367254262434800,6.812434814453125,0.77386474609375,1.317138671875,-0.2238616943359375
1763367254272461600,6.822461669921875,0.7310028076171875,1.4287872314453125,-0.1595611572265625
1763367254282488600,6.832488525390625,0.5924835205078125,1.59136962890625,-0.1664276123046875
1763367254292515600,6.842515625,0.58441162109375,1.8175048828125,-0.139739990234375
1763367254302542600,6.85254248046875,0.6107330322265625,1.9080352783203125,-0.1542205810546875
1763367254312569600,6.862569580078125,0.7942962646484375,1.6139678955078125,-0.12567138671875
1763367254322597400,6.872597412109375,-0.0615386962890625,0.7786712646484375,-0.0538330078125
1763367254332624600,6.882624755859375,-1.08477783203125,0.0435333251953125,-0.1169281005859375
1763367254342651600,6.892651611328125,-1.343170166015625,-0.3421630859375,-0.2705535888671875
1763367254352678700,6.9026787109375,-1.0199737548828125,-0.519256591796875,-0.564117431640625
1763367254362705700,6.91270556640625,0.21368408203125,-0.4532928466796875,-0.83050537109375
1763367254372732700,6.922732666015625,1.2969512939453125,0.02874755859375,-0.94073486328125
1763367254382759700,6.932759765625,0.5062255859375,0.993865966796875,-0.4684295654296875
1763367254392786400,6.942786376953125,-0.2889556884765625,1.632110595703125,0.0180206298828125
1763367254402813700,6.952813720703125,-0.742279052734375,1.7493896484375,0.260101318359375
1763367254412840700,6.9628408203125,-0.718841552734375,1.8335418701171875,0.44354248046875
1763367254422868500,6.972868408203125,-0.403656005859375,1.7488861083984375,0.4178009033203125
1763367254432895200,6.982895263671875,-0.1372833251953125,1.3450469970703125,0.21527099609375
1763367254442922200,6.992922119140625,-0.0126495361328125,0.9084930419921875,-0.0475616455078125
1763367254452949000,7.002948974609375,0.0762786865234375,0.7868804931640625,-0.1278228759765625
1763367254462976300,7.012976318359375,0.0262298583984375,0.7852783203125,-0.1286773681640625
1763367254473003300,7.023003173828125,-0.1143798828125,0.818695068359375,-0.0432891845703125
1763367254483030000,7.033030029296875,-0.2115325927734375,0.869384765625,0.0142059326171875
1763367254493057000,7.04305712890625,-0.278289794921875,0.9738922119140625,0.0633697509765625
1763367254503084300,7.053084228515625,-0.25372314453125,1.094482421875,0.089935302734375
1763367254513111000,7.063111083984375,0.0052947998046875,1.1622161865234375,0.1021575927734375
1763367254523139000,7.07313916015625,0.2388153076171875,1.130157470703125,0.1084747314453125
1763367254533166000,7.083166015625,0.368438720703125,1.0789947509765625,0.0636749267578125
1763367254543193000,7.093193115234375,0.383453369140625,1.0365142822265625,-0.0514678955078125
1763367254553220000,7.10322021484375,0.2595672607421875,0.970001220703125,-0.1535491943359375
1763367254563247000,7.1132470703125,0.115447998046875,0.8894500732421875,-0.217041015625
1763367254573274000,7.123274169921875,0.008056640625,0.8318634033203125,-0.1933746337890625
1763367254583301000,7.133301025390625,-0.0924835205078125,0.857421875,-0.146240234375
1763367254593327900,7.143327880859375,-0.16094970703125,0.9377288818359375,-0.1157684326171875
1763367254603355100,7.153355224609375,-0.208282470703125,1.007843017578125,-0.081298828125
1763367254613382100,7.163382080078125,-0.18902587890625,1.0521240234375,-0.0122528076171875
1763367254623410200,7.17341015625,-0.1056365966796875,1.09112548828125,0.0592041015625
1763367254633437200,7.183437255859375,-0.0194244384765625,1.11224365234375,0.1173095703125
1763367254643464200,7.193464111328125,0.0728759765625,1.10626220703125,0.150146484375
1763367254653491000,7.203490966796875,0.1612548828125,1.05718994140625,0.1483612060546875
1763367254663518200,7.213518310546875,0.1928558349609375,1.0029449462890625,0.1410064697265625
1763367254673545200,7.223545166015625,0.1716156005859375,0.9447174072265625,0.1390838623046875
1763367254683572000,7.233572021484375,0.1525115966796875,0.93072509765625,0.132110595703125
1763367254693599200,7.24359912109375,0.1409759521484375,0.9341583251953125,0.1056976318359375
1763367254703626200,7.253626220703125,0.141204833984375,0.919158935546875,0.04644775390625
1763367254713654000,7.263654052734375,0.1232757568359375,0.9105682373046875,0.0232391357421875
1763367254723681300,7.273681396484375,0.0706634521484375,0.8877410888671875,-0.00421142578125
1763367254733708000,7.2837080078125,0.04547119140625,0.8897857666015625,-0.03594970703125
1763367254743735000,7.293735107421875,0.0411529541015625,0.8909912109375,-0.0654754638671875
1763367254753762000,7.303761962890625,0.0381622314453125,0.8897552490234375,-0.096588134765625
1763367254763789000,7.3137890625,0.0198516845703125,0.866912841796875,-0.12786865234375
1763367254773816000,7.323816162109375,0.0073089599609375,0.8316192626953125,-0.152313232421875
1763367254783843000,7.333843017578125,-0.0157012939453125,0.7840118408203125,-0.19232177734375
1763367254793870300,7.343870361328125,-0.0698089599609375,0.76416015625,-0.2249755859375
1763367254803897000,7.35389697265625,-0.147491455078125,0.7709503173828125,-0.245025634765625
1763367254813925000,7.363925048828125,-0.281890869140625,0.790069580078125,-0.250030517578125
1763367254823952100,7.3739521484375,-0.3841552734375,0.8271331787109375,-0.2008209228515625
1763367254833979100,7.383979248046875,-0.361907958984375,0.8751678466796875,-0.140380859375
1763367254844006100,7.394006103515625,-0.2909393310546875,0.9650726318359375,-0.055023193359375
1763367254854033000,7.404032958984375,-0.199066162109375,1.08209228515625,0.0538787841796875
1763367254864060200,7.41406005859375,-0.065521240234375,1.1446685791015625,0.1273040771484375
1763367254874087200,7.424087158203125,0.0596923828125,1.1668548583984375,0.180328369140625
1763367254884114000,7.434114013671875,0.2021331787109375,1.243133544921875,0.2370147705078125
1763367254894141200,7.44414111328125,0.34429931640625,1.2549591064453125,0.2785491943359375
1763367254904169000,7.4541689453125,0.409576416015625,1.2492828369140625,0.312835693359375
1763367254914196000,7.464196044921875,0.392608642578125,1.188812255859375,0.3231964111328125
1763367254924223200,7.47422314453125,0.332061767578125,1.137542724609375,0.2950897216796875
1763367254934250200,7.484250244140625,0.2362213134765625,1.076873779296875,0.2336273193359375
1763367254944277000,7.494277099609375,0.1255950927734375,1.083953857421875,0.185577392578125
1763367254954304300,7.50430419921875,-0.0090789794921875,1.130645751953125,0.18768310546875
1763367254964331300,7.514331298828125,-0.1367950439453125,1.1653594970703125,0.2169036865234375
1763367254974358000,7.52435791015625,-0.20782470703125,1.205657958984375,0.2194671630859375
1763367254984385000,7.534385009765625,-0.231353759765625,1.2620849609375,0.232818603515625
1763367254994413000,7.5444130859375,-0.236907958984375,1.340606689453125,0.2720489501953125
1763367255004440000,7.554440185546875,-0.260406494140625,1.4261322021484375,0.27166748046875
1763367255014467000,7.564467041015625,-0.252655029296875,1.499786376953125,0.20306396484375
1763367255024494000,7.574494140625,-0.133758544921875,1.471282958984375,0.0506744384765625
1763367255034521000,7.58452099609375,0.03936767578125,1.317901611328125,-0.1413421630859375
1763367255044548000,7.594548095703125,0.1098480224609375,1.195404052734375,-0.27777099609375
1763367255054575000,7.6045751953125,0.1461181640625,1.0838165283203125,-0.377777099609375
1763367255064602000,7.61460205078125,0.2711181640625,0.9569854736328125,-0.4388427734375
1763367255074629000,7.624629150390625,0.4754180908203125,0.8336181640625,-0.5169677734375
1763367255084657200,7.6346572265625,0.65087890625,0.8362884521484375,-0.5478515625
1763367255094684200,7.64468408203125,0.4987335205078125,1.0778961181640625,-0.377777099609375
1763367255104711200,7.654711181640625,0.28582763671875,1.3412628173828125,-0.276824951171875
1763367255114738200,7.66473828125,0.0524139404296875,1.5697174072265625,-0.2195281982421875
1763367255124765200,7.67476513671875,-0.102386474609375,1.6501312255859375,-0.2371063232421875
1763367255134792200,7.684792236328125,-0.1798553466796875,1.558135986328125,-0.2520751953125
1763367255144819000,7.69481884765625,-0.1898193359375,1.42388916015625,-0.1973876953125
1763367255154846200,7.70484619140625,-0.233795166015625,1.2809600830078125,-0.08367919921875
1763367255164873200,7.714873291015625,-0.3284454345703125,1.178466796875,0.0432586669921875
1763367255174901000,7.72490087890625,-0.390167236328125,1.0794677734375,0.085540771484375
1763367255184928300,7.73492822265625,-0.510406494140625,0.9876861572265625,0.07635498046875
1763367255194955000,7.744955078125,-0.577117919921875,1.039306640625,0.1036529541015625
1763367255204982000,7.75498193359375,-0.4957733154296875,1.135345458984375,0.109619140625
1763367255215009300,7.76500927734375,-0.1832427978515625,1.1532440185546875,0.076202392578125
1763367255225036000,7.7750361328125,0.161376953125,1.1926727294921875,0.0705718994140625
1763367255235063000,7.78506298828125,0.328521728515625,1.237701416015625,0.103240966796875
1763367255245090000,7.795090087890625,0.271209716796875,1.2310028076171875,0.1482086181640625
1763367255255117000,7.805116943359375,0.1941680908203125,1.1264801025390625,0.0977325439453125
1763367255265145000,7.81514501953125,0.0735626220703125,1.005096435546875,0.016845703125
1763367255275172000,7.825172119140625,-0.00982666015625,0.933319091796875,-0.0552978515625
1763367255285199000,7.83519921875,-0.087677001953125,0.8919830322265625,-0.0778045654296875
1763367255295226000,7.84522607421875,-0.058990478515625,0.8056640625,-0.1668701171875
1763367255305253000,7.855253173828125,-0.0865020751953125,0.7449188232421875,-0.2207489013671875
1763367255315280100,7.865280029296875,-0.10333251953125,0.6316680908203125,-0.2361907958984375
1763367255325307100,7.87530712890625,-0.36566162109375,0.582183837890625,-0.2326812744140625
1763367255335334100,7.885334228515625,-0.4404754638671875,0.7063140869140625,-0.0470733642578125
1763367255345361000,7.89536083984375,-0.063751220703125,0.71759033203125,-0.0175323486328125
1763367255355389200,7.90538916015625,-0.0135040283203125,0.6469879150390625,-0.007049560546875
1763367255365416000,7.915416015625,-0.0255584716796875,0.5831146240234375,-0.056121826171875
1763367255375443200,7.925443115234375,-0.0402679443359375,0.5410308837890625,-0.1416168212890625
1763367255385470200,7.93547021484375,-0.0431976318359375,0.515106201171875,-0.175537109375
1763367255395497000,7.9454970703125,0.002471923828125,0.4850616455078125,-0.183929443359375
1763367255405524000,7.95552392578125,0.0721588134765625,0.4677581787109375,-0.1923828125
1763367255415551200,7.96555126953125,0.064666748046875,0.45196533203125,-0.178497314453125
1763367255425578200,7.975578125,0.02117919921875,0.4466400146484375,-0.1688385009765625
1763367255435605000,7.98560498046875,-0.0071258544921875,0.45831298828125,-0.1628265380859375
1763367255445633300,7.99563330078125,-0.0184478759765625,0.49114990234375,-0.139801025390625
1763367255455660000,8.005659912109374,-0.0430145263671875,0.5308990478515625,-0.098480224609375
1763367255465687000,8.01568701171875,-0.00341796875,0.5336456298828125,-0.0627593994140625
1763367255475714300,8.02571435546875,0.091796875,0.5331573486328125,-0.064727783203125
1763367255485741000,8.035740966796874,0.2271270751953125,0.5699920654296875,-0.0920867919921875
1763367255495768000,8.04576806640625,0.365753173828125,0.613739013671875,-0.123809814453125
1763367255505795000,8.055795166015624,0.63079833984375,0.6835174560546875,-0.171051025390625
1763367255515822000,8.065822021484376,0.8937530517578125,0.820526123046875,-0.2197265625
1763367255525849000,8.07584912109375,1.102874755859375,1.030975341796875,-0.2953338623046875
1763367255535876900,8.085876953125,1.3637847900390625,1.3959197998046875,-0.2579803466796875
1763367255545904000,8.095904052734374,1.5583343505859375,1.8748626708984375,-0.0467987060546875
1763367255555931100,8.10593115234375,1.456939697265625,2.179779052734375,0.2323455810546875
1763367255565958100,8.115958251953124,1.1612396240234375,1.9867401123046875,0.3144378662109375
1763367255575985200,8.125985107421876,0.8136138916015625,1.561553955078125,0.2012786865234375
1763367255586012200,8.13601220703125,0.531036376953125,1.24078369140625,0.089202880859375
1763367255596039200,8.1460390625,0.3347625732421875,1.009979248046875,0.027679443359375
1763367255606066200,8.156066162109376,0.2809906005859375,0.847869873046875,-0.0181121826171875
1763367255616093200,8.16609326171875,0.3316192626953125,0.7738189697265625,-0.090057373046875
1763367255626120200,8.1761201171875,0.615814208984375,0.835540771484375,-0.213134765625
1763367255636148200,8.186148193359376,1.0645751953125,1.0535430908203125,-0.312835693359375
1763367255646175200,8.19617529296875,1.1013946533203125,1.337554931640625,-0.30523681640625
1763367255656202000,8.206201904296876,0.4441680908203125,1.634490966796875,-0.2717742919921875
1763367255666229000,8.21622900390625,0.1867828369140625,2.026519775390625,-0.220001220703125
1763367255676256300,8.22625634765625,0.309173583984375,2.1948394775390625,-0.1000518798828125
1763367255686283000,8.236282958984376,0.3356170654296875,1.844024658203125,-0.0826263427734375
1763367255696310000,8.24631005859375,0.46307373046875,1.1221771240234375,-0.0524139404296875
1763367255706337300,8.256337158203126,0.09130859375,0.2945098876953125,0.0197601318359375
1763367255716364000,8.266364013671875,-0.742034912109375,-0.1852874755859375,0.0573883056640625
1763367255726392000,8.27639208984375,-1.0147857666015625,-0.4148406982421875,-0.133636474609375
1763367255736419300,8.28641943359375,-1.006683349609375,-0.4753265380859375,-0.4259490966796875
1763367255746446000,8.296446044921876,-0.367218017578125,-0.2632904052734375,-0.7094573974609375
1763367255756473000,8.30647314453125,0.6351470947265625,0.16632080078125,-0.960540771484375
1763367255766500000,8.3165,0.7959442138671875,1.020751953125,-0.9812774658203125
1763367255776527000,8.326527099609375,-0.006072998046875,1.893951416015625,-0.593994140625
1763367255786554000,8.33655419921875,-0.588623046875,2.1261138916015625,-0.089447021484375
1763367255796581000,8.3465810546875,-0.5547943115234375,1.923126220703125,0.19451904296875
1763367255806608100,8.356608154296875,-0.22265625,1.53436279296875,0.11126708984375
1763367255816635100,8.36663525390625,-0.1217803955078125,1.0590972900390625,-0.04754638671875
1763367255826663000,8.376662841796875,-0.114837646484375,0.7553558349609375,-0.181854248046875
1763367255836690200,8.386690185546875,-0.0691070556640625,0.6803741455078125,-0.1447601318359375
1763367255846717200,8.39671728515625,-0.15679931640625,0.709259033203125,-0.0123291015625
1763367255856744000,8.406743896484375,-0.309295654296875,0.864166259765625,0.1671905517578125
1763367255866771200,8.416771240234375,-0.24462890625,1.067962646484375,0.33477783203125
1763367255876798200,8.426798095703125,0.004974365234375,1.20269775390625,0.389923095703125
1763367255886825000,8.436824951171875,0.130859375,1.2445831298828125,0.3579864501953125
1763367255896852000,8.44685205078125,0.2692108154296875,1.2196807861328125,0.2630157470703125
1763367255906879200,8.456879150390625,0.2929534912109375,1.1761016845703125,0.17608642578125
1763367255916906200,8.46690625,0.214813232421875,1.076141357421875,0.0737152099609375
1763367255926934000,8.47693408203125,0.1642913818359375,0.946502685546875,0.0035858154296875
1763367255936961300,8.486961181640625,0.12164306640625,0.85284423828125,-0.0247650146484375
1763367255946988000,8.496988037109375,0.0444488525390625,0.8282318115234375,-0.060272216796875
1763367255957015000,8.50701513671875,-0.0257720947265625,0.808868408203125,-0.084442138671875
1763367255967042300,8.517042236328125,-0.053619384765625,0.8414764404296875,-0.0683746337890625
1763367255977069000,8.527069091796875,-0.0474395751953125,0.908843994140625,-0.0292510986328125
1763367255987096000,8.537095947265625,-0.029876708984375,0.9508819580078125,0.0224151611328125
1763367255997123000,8.547123046875,0.0034027099609375,0.9904327392578125,0.0739288330078125
1763367256007150000,8.557150146484375,0.0337371826171875,1.0373687744140625,0.1129608154296875
1763367256017178000,8.56717822265625,0.0771636962890625,1.06512451171875,0.146697998046875
1763367256027204900,8.577204833984375,0.0574493408203125,1.0635986328125,0.179107666015625
1763367256037232000,8.587232177734375,0.04400634765625,1.0472869873046875,0.1798553466796875
1763367256047259100,8.597259033203125,0.062774658203125,0.9929046630859375,0.1309814453125
1763367256057286100,8.6072861328125,0.0356903076171875,0.941925048828125,0.082000732421875
1763367256067313200,8.617313232421875,0.0051727294921875,0.9156646728515625,0.030181884765625
1763367256077340200,8.627340087890625,0.014678955078125,0.902008056640625,-0.027069091796875
1763367256087367200,8.6373671875,0.020172119140625,0.9031982421875,-0.0804443359375
1763367256097394000,8.647393798828125,0.0092620849609375,0.9151763916015625,-0.09979248046875
1763367256107421200,8.657421142578125,0.0081634521484375,0.904998779296875,-0.1365814208984375
1763367256117449000,8.667448974609375,0.0478363037109375,0.888641357421875,-0.15093994140625
1763367256127476200,8.677476318359375,0.0946807861328125,0.8746490478515625,-0.1412811279296875
1763367256137503200,8.687503173828125,0.1206207275390625,0.862091064453125,-0.128631591796875
1763367256147530000,8.697530029296875,0.101806640625,0.85528564453125,-0.0937957763671875
1763367256157557000,8.707556884765625,0.0360107421875,0.852630615234375,-0.062896728515625
1763367256167584300,8.717584228515625,-0.067291259765625,0.85662841796875,-0.0474853515625
1763367256177611000,8.727611083984375,-0.1567840576171875,0.8826904296875,-0.02557373046875
1763367256187638000,8.737637939453125,-0.21337890625,0.899444580078125,-0.0127716064453125
1763367256197665300,8.747665283203125,-0.2269134521484375,0.90460205078125,-0.0230712890625
1763367256207692000,8.757692138671874,-0.17059326171875,0.908843994140625,-0.041717529296875
1763367256217720000,8.767719970703125,-0.1222991943359375,0.9463958740234375,-0.0236663818359375
1763367256227747300,8.777747314453125,-0.1474761962890625,0.9798126220703125,0.038360595703125
1763367256237774000,8.787774169921875,-0.1847076416015625,1.03778076171875,0.1208648681640625
1763367256247801000,8.797801025390624,-0.191253662109375,1.1061553955078125,0.1968994140625
1763367256257828000,8.807828125,-0.0115509033203125,1.1086883544921875,0.1927490234375
1763367256267855000,8.817855224609374,0.16314697265625,1.1051483154296875,0.181365966796875
1763367256277882000,8.827882080078124,0.1657257080078125,1.123565673828125,0.180023193359375
1763367256287909000,8.8379091796875,0.1668853759765625,1.174041748046875,0.1130218505859375
1763367256297936100,8.84793603515625,0.184906005859375,1.2240142822265625,0.0532379150390625
1763367256307963100,8.857963134765624,0.191375732421875,1.1701507568359375,-0.021881103515625
1763367256317990100,8.867990234375,0.1862945556640625,1.11602783203125,-0.0843505859375
1763367256328018200,8.87801806640625,0.161773681640625,1.1074371337890625,-0.0875091552734375
1763367256338045200,8.888045166015624,0.15179443359375,1.079742431640625,-0.023468017578125
1763367256348072000,8.898072021484374,0.094329833984375,1.116180419921875,0.06170654296875
1763367256358099200,8.90809912109375,-0.0470733642578125,1.176055908203125,0.16357421875
1763367256368126200,8.918126220703124,-0.1873321533203125,1.2229156494140625,0.257110595703125
1763367256378153000,8.928153076171874,-0.227935791015625,1.28125,0.33453369140625
1763367256388180000,8.938179931640626,-0.251068115234375,1.32366943359375,0.3243408203125
1763367256398207200,8.948207275390626,-0.2708892822265625,1.38531494140625,0.250396728515625
1763367256408234200,8.958234130859376,-0.2258148193359375,1.3418121337890625,0.071990966796875
1763367256418261000,8.968260986328126,-0.1641082763671875,1.2311553955078125,-0.1698150634765625
1763367256428289000,8.9782890625,-0.102142333984375,1.172698974609375,-0.2823638916015625
1763367256438315800,8.988315673828126,0.0276336669921875,1.100555419921875,-0.3174896240234375
1763367256448342800,8.9983427734375,0.3077545166015625,0.98358154296875,-0.315093994140625
1763367256458370000,9.0083701171875,0.8733978271484375,0.855682373046875,-0.2677459716796875
1763367256468396800,9.018396728515626,1.0924072265625,0.887664794921875,-0.1792449951171875
1763367256478423800,9.028423828125,0.5110931396484375,1.09295654296875,-0.08489990234375
1763367256488451000,9.038451171875,0.0220489501953125,1.287078857421875,-0.0190277099609375
1763367256498477800,9.048477783203126,-0.1966552734375,1.4381103515625,-0.0837554931640625
1763367256508504800,9.0585048828125,-0.310333251953125,1.4989013671875,-0.169647216796875
1763367256518531800,9.06853173828125,-0.3807373046875,1.4464263916015625,-0.276641845703125
1763367256528559900,9.078559814453126,-0.36199951171875,1.3677978515625,-0.3426055908203125
1763367256538587000,9.0885869140625,-0.26812744140625,1.2925567626953125,-0.2762603759765625
1763367256548614000,9.09861376953125,-0.2508087158203125,1.1584625244140625,-0.1588287353515625
1763367256558641000,9.108640869140626,-0.2669219970703125,1.0460662841796875,-0.10638427734375
1763367256568668000,9.11866796875,-0.3598175048828125,1.056182861328125,-0.03302001953125
1763367256578695000,9.12869482421875,-0.4611358642578125,1.1273651123046875,0.0308990478515625
1763367256588722000,9.138721923828125,-0.5174560546875,1.1712799072265625,0.11456298828125
1763367256598749000,9.1487490234375,-0.1438751220703125,1.187713623046875,0.113494873046875
1763367256608776000,9.15877587890625,0.4297943115234375,1.1385955810546875,0.022613525390625
1763367256618802700,9.168802734375,0.4523773193359375,1.1498260498046875,0.0117645263671875
1763367256628831000,9.1788310546875,0.19390869140625,1.1537628173828125,0.0283355712890625
1763367256638857700,9.188857666015625,0.0098724365234375,1.099853515625,0.016021728515625
1763367256648885000,9.198885009765625,-0.09735107421875,1.02288818359375,-0.011566162109375
1763367256658912000,9.208912109375,-0.1475677490234375,0.951080322265625,-0.032867431640625
1763367256668938800,9.218938720703125,-0.162841796875,0.8913116455078125,-0.042144775390625
1763367256678965800,9.2289658203125,-0.1385040283203125,0.84075927734375,-0.050811767578125
1763367256688993000,9.238992919921875,-0.1510162353515625,0.7713470458984375,-0.0480804443359375
1763367256699020000,9.24902001953125,-0.1275787353515625,0.7494659423828125,-0.0172119140625
1763367256709046800,9.259046875,-0.074920654296875,0.7316436767578125,-0.0111083984375
1763367256719074000,9.269073974609375,-0.065216064453125,0.70928955078125,-0.0108795166015625
1763367256729101000,9.27910107421875,-0.0290985107421875,0.69403076171875,-0.0247344970703125
1763367256739128800,9.28912890625,-0.0053253173828125,0.685516357421875,-0.0259857177734375
1763367256749156000,9.299156005859375,0.0111846923828125,0.6551361083984375,-0.0534515380859375
1763367256759182800,9.309182861328125,0.0112762451171875,0.6357421875,-0.0734100341796875
1763367256769209900,9.3192099609375,0.019012451171875,0.6033782958984375,-0.1115570068359375
1763367256779236900,9.32923681640625,0.0079345703125,0.557464599609375,-0.132568359375
1763367256789264000,9.339263916015625,0.0193634033203125,0.542266845703125,-0.1321563720703125
1763367256799291000,9.349290771484375,0.0294647216796875,0.5271759033203125,-0.1278076171875
1763367256809318000,9.35931787109375,0.04718017578125,0.5065155029296875,-0.130645751953125
1763367256819345000,9.369344970703125,0.049713134765625,0.5061798095703125,-0.1248321533203125
1763367256829372000,9.379371826171875,0.0496368408203125,0.510223388671875,-0.10723876953125
1763367256839399000,9.38939892578125,0.063232421875,0.5372314453125,-0.066009521484375
1763367256849427000,9.399427001953125,0.098907470703125,0.581329345703125,-0.019622802734375
1763367256859454000,9.409453857421875,0.1698455810546875,0.6174468994140625,0.01422119140625
1763367256869481000,9.41948095703125,0.3025054931640625,0.64910888671875,0.021881103515625
1763367256879508000,9.429508056640625,0.4488067626953125,0.690155029296875,0.0044708251953125
1763367256889535000,9.439534912109375,0.6447296142578125,0.7587738037109375,-0.0066375732421875
1763367256899562000,9.44956201171875,0.9909820556640625,0.899169921875,-0.015350341796875
1763367256909588700,9.459588623046875,1.38360595703125,1.1364288330078125,-0.0314178466796875
1763367256919616000,9.469615966796875,1.4981842041015625,1.462921142578125,-0.0554656982421875
1763367256929643000,9.47964306640625,1.3468780517578125,1.8178863525390625,-0.0812530517578125
1763367256939669800,9.489669677734375,1.152252197265625,1.9615325927734375,-0.0534210205078125
1763367256949698000,9.499697998046875,0.95098876953125,1.743865966796875,0.004425048828125
1763367256959724800,9.509724853515625,0.781585693359375,1.3804473876953125,0.0567474365234375
1763367256969751800,9.519751708984375,0.657470703125,1.16949462890625,0.0723876953125
1763367256979779000,9.529779052734375,0.5003204345703125,1.0823974609375,0.042633056640625
1763367256989805800,9.539805908203125,0.38916015625,1.0363922119140625,-0.0040740966796875
1763367256999832800,9.549832763671875,0.5249176025390625,1.03155517578125,-0.0923004150390625
1763367257009859800,9.55985986328125,0.8138580322265625,1.0361480712890625,-0.1458740234375
1763367257019886800,9.569886962890624,0.78924560546875,1.03887939453125,-0.0854644775390625
1763367257029913900,9.579913818359374,0.425323486328125,1.16668701171875,-0.1253814697265625
1763367257039940900,9.58994091796875,-0.131439208984375,1.343536376953125,-0.29937744140625
1763367257049968000,9.599968017578124,-0.1109466552734375,1.4914093017578125,-0.33526611328125
1763367257059996000,9.609995849609374,0.29132080078125,1.4357757568359375,-0.2330474853515625
1763367257070023000,9.62002294921875,0.5132904052734375,1.05517578125,-0.07611083984375
1763367257080050000,9.6300498046875,0.3031768798828125,0.517822265625,0.032012939453125
1763367257090077000,9.640076904296874,-0.3757781982421875,0.1731109619140625,-0.0156097412109375
1763367257100104000,9.65010400390625,-0.920166015625,0.01885986328125,-0.2559661865234375
1763367257110130700,9.660130615234374,-0.9017791748046875,-0.0255889892578125,-0.6222381591796875
1763367257120158000,9.670157958984374,-0.075653076171875,0.1122283935546875,-0.8675994873046875
1763367257130185000,9.68018505859375,0.987274169921875,0.563323974609375,-0.843963623046875
1763367257140211700,9.690211669921876,0.6495819091796875,1.257080078125,-0.40850830078125
1763367257150239000,9.700239013671874,-0.1409912109375,1.525665283203125,0.00982666015625
1763367257160266000,9.710265869140626,-0.4552001953125,1.435882568359375,0.1685943603515625
1763367257170293800,9.720293701171874,-0.405487060546875,1.359344482421875,0.2282257080078125
1763367257180321000,9.730321044921874,-0.2536163330078125,1.242034912109375,0.1659698486328125
1763367257190348000,9.74034814453125,-0.11822509765625,1.0880889892578125,0.051910400390625
1763367257200374800,9.750374755859376,-0.076263427734375,0.9461517333984375,0.0092315673828125
1763367257210402000,9.760402099609376,-0.0841064453125,0.8513946533203125,-0.0106353759765625
1763367257220429000,9.770428955078126,-0.098846435546875,0.85211181640625,-0.0248870849609375
1763367257230455800,9.780455810546876,-0.1334075927734375,0.92816162109375,-0.0054931640625
1763367257240482800,9.79048291015625,-0.1873779296875,1.0261383056640625,0.0542755126953125
1763367257250510000,9.800510009765626,-0.1930999755859375,1.102752685546875,0.1176300048828125
1763367257260536800,9.810536865234376,-0.1359100341796875,1.132904052734375,0.1233367919921875
1763367257270564900,9.82056494140625,0.0263214111328125,1.128082275390625,0.08099365234375
1763367257280592000,9.830591796875,0.10943603515625,1.0922698974609375,0.0728912353515625
1763367257290619000,9.840618896484376,0.1160430908203125,1.029754638671875,0.060455322265625
1763367257300646000,9.85064599609375,0.1018524169921875,0.96173095703125,0.043914794921875
1763367257310673000,9.8606728515625,0.0704803466796875,0.9047393798828125,0.0243682861328125
1763367257320700000,9.870699951171876,0.0086517333984375,0.9360504150390625,0.0419769287109375
1763367257330727000,9.880726806640626,-0.0893707275390625,0.9782257080078125,0.078887939453125
1763367257340754000,9.89075390625,-0.11767578125,1.025787353515625,0.1057586669921875
1763367257350781000,9.900781005859375,-0.0882110595703125,1.0146331787109375,0.088836669921875
1763367257360808000,9.910807861328125,-0.0462188720703125,0.9655914306640625,0.04937744140625
1763367257370835000,9.9208349609375,0.0166168212890625,0.974822998046875,0.045745849609375
1763367257380863000,9.930863037109376,0.0500030517578125,0.981536865234375,0.045074462890625
1763367257390890000,9.940889892578125,0.0783843994140625,0.9631195068359375,0.0236358642578125
1763367257400916700,9.950916748046875,0.0954132080078125,0.96221923828125,0.015167236328125
1763367257410944000,9.960944091796875,0.09722900390625,0.9716033935546875,0.0161285400390625
1763367257420971000,9.970970947265625,0.0494384765625,0.9813232421875,0.036407470703125
1763367257430998000,9.980998046875,0.0189361572265625,1.006011962890625,0.0460968017578125
1763367257441025000,9.99102490234375,0.0446624755859375,0.9979248046875,0.012847900390625
1763367257451052000,10.001052001953125,0.0594024658203125,0.9398345947265625,-0.0237579345703125
1763367257461078800,10.011078857421875,0.0641937255859375,0.8892059326171875,-0.0566558837890625
1763367257471106000,10.02110595703125,0.04229736328125,0.8593292236328125,-0.070556640625
1763367257481133000,10.031133056640625,-0.0492095947265625,0.8323211669921875,-0.0960693359375
1763367257491160800,10.041160888671875,-0.1695709228515625,0.82904052734375,-0.109588623046875
1763367257501188000,10.05118798828125,-0.2406005859375,0.815460205078125,-0.1462860107421875
1763367257511214800,10.06121484375,-0.2730255126953125,0.7930450439453125,-0.1964263916015625
1763367257521241900,10.071241943359375,-0.34124755859375,0.808990478515625,-0.200103759765625
1763367257531269000,10.08126904296875,-0.332366943359375,0.8368682861328125,-0.189056396484375
1763367257541296000,10.091296142578125,-0.290985107421875,0.89630126953125,-0.1773529052734375
1763367257551323000,10.101322998046875,-0.2599334716796875,0.9432830810546875,-0.153076171875
1763367257561350000,10.111349853515625,-0.22088623046875,0.9935760498046875,-0.088714599609375
1763367257571377200,10.121377197265625,-0.132598876953125,1.0196380615234375,-0.061431884765625
1763367257581404000,10.13140380859375,-0.0539093017578125,1.047149658203125,-0.0420989990234375
1763367257591431000,10.141430908203125,0.0263519287109375,1.1088409423828125,0.003692626953125
1763367257601459000,10.151458984375,0.1354827880859375,1.1608123779296875,0.0516204833984375
1763367257611486000,10.16148583984375,0.244842529296875,1.180816650390625,0.1030120849609375
1763367257621513000,10.171512939453125,0.3337554931640625,1.1681976318359375,0.1497802734375
1763367257631540000,10.1815400390625,0.3991851806640625,1.141937255859375,0.174102783203125
1763367257641567000,10.19156689453125,0.4573516845703125,1.1373443603515625,0.18524169921875
1763367257651594000,10.201593994140625,0.48016357421875,1.1378936767578125,0.19329833984375
1763367257661621000,10.21162109375,0.4365386962890625,1.1445159912109375,0.2092742919921875
1763367257671648000,10.22164794921875,0.265869140625,1.1436309814453125,0.2230072021484375
1763367257681675000,10.231675048828125,-0.005950927734375,1.1201019287109375,0.21112060546875
1763367257691702000,10.241701904296875,-0.1319580078125,1.116058349609375,0.1723175048828125
1763367257701730000,10.25172998046875,-0.1706085205078125,1.1781005859375,0.1577911376953125
1763367257711757000,10.261757080078125,-0.184600830078125,1.225433349609375,0.140289306640625
1763367257721783800,10.27178369140625,-0.21270751953125,1.2751312255859375,0.1587677001953125
1763367257731811000,10.28181103515625,-0.2589874267578125,1.32830810546875,0.188629150390625
1763367257741838000,10.291838134765625,-0.2895660400390625,1.3516387939453125,0.203765869140625
1763367257751864800,10.30186474609375,-0.2749786376953125,1.3725738525390625,0.255950927734375
1763367257761892000,10.31189208984375,-0.2860565185546875,1.4188079833984375,0.2743072509765625
1763367257771919000,10.321919189453125,-0.20196533203125,1.374603271484375,0.1185302734375
1763367257781945900,10.33194580078125,-0.10882568359375,1.23583984375,-0.09844970703125
1763367257791972900,10.341972900390624,-0.0664520263671875,1.1217803955078125,-0.255584716796875
1763367257802001000,10.3520009765625,0.0306854248046875,1.01788330078125,-0.36822509765625
1763367257812028000,10.36202783203125,0.2584686279296875,0.890045166015625,-0.4819793701171875
1763367257822055200,10.37205517578125,0.79266357421875,0.7614898681640625,-0.6900482177734375
1763367257832082000,10.38208203125,1.1729888916015625,0.7681121826171875,-0.7721099853515625
1763367257842109000,10.39210888671875,0.7958526611328125,1.0594329833984375,-0.503509521484375
1763367257852136000,10.402135986328124,0.4362640380859375,1.4549102783203125,-0.322021484375
1763367257862163000,10.412162841796874,0.1030426025390625,1.7144012451171875,-0.3151397705078125
1763367257872190000,10.42218994140625,-0.1667022705078125,1.765228271484375,-0.3190460205078125
1763367257882217000,10.432217041015624,-0.3251495361328125,1.55963134765625,-0.3041839599609375
1763367257892244200,10.442244140625,-0.39990234375,1.3294219970703125,-0.2127532958984375
1763367257902272000,10.45227197265625,-0.5167388916015625,1.190582275390625,-0.0839996337890625
1763367257912299000,10.462299072265624,-0.62939453125,1.0665740966796875,-0.0073699951171875
1763367257922326000,10.472325927734374,-0.7013397216796875,0.990203857421875,0.061431884765625
1763367257932353000,10.48235302734375,-0.71722412109375,0.9487457275390625,0.1399993896484375
1763367257942380000,10.492380126953124,-0.6652374267578125,0.9593963623046875,0.1568450927734375
1763367257952406800,10.50240673828125,-0.461090087890625,1.06280517578125,0.134979248046875
1763367257962434000,10.51243408203125,0.0643157958984375,1.170928955078125,0.083251953125
1763367257972461000,10.5224609375,0.7205352783203125,1.263214111328125,0.0834197998046875
1763367257982487800,10.53248779296875,0.7534942626953125,1.3120269775390625,0.0896453857421875
1763367257992515000,10.54251513671875,0.4068603515625,1.2059783935546875,-0.0037384033203125
1763367258002542000,10.5525419921875,0.1687469482421875,1.0762481689453125,-0.0872650146484375
1763367258012569900,10.56256982421875,-0.05194091796875,0.9849395751953125,-0.114837646484375
1763367258022597000,10.57259716796875,-0.4570770263671875,0.9842987060546875,-0.0277252197265625
1763367258032624000,10.5826240234375,-0.3301544189453125,0.959442138671875,0.029205322265625
1763367258042651000,10.59265087890625,-0.069610595703125,0.836181640625,0.0231475830078125
1763367258052678000,10.602677978515626,-0.0514984130859375,0.737457275390625,-0.0413970947265625
1763367258062705200,10.612705078125,-0.09124755859375,0.6893768310546875,-0.0872650146484375
1763367258072732000,10.62273193359375,-0.1328277587890625,0.6755218505859375,-0.12261962890625
1763367258082759000,10.632759033203126,-0.1300048828125,0.6654205322265625,-0.14678955078125
1763367258092786200,10.6427861328125,-0.0845947265625,0.64422607421875,-0.1512603759765625
1763367258102814000,10.65281396484375,-0.044158935546875,0.60162353515625,-0.1472015380859375
1763367258112841000,10.662841064453126,-0.0410614013671875,0.56585693359375,-0.1284942626953125
1763367258122868000,10.672867919921876,-0.003753662109375,0.5250396728515625,-0.136199951171875
1763367258132895000,10.68289501953125,0.0403900146484375,0.4796905517578125,-0.164306640625
1763367258142922000,10.692921875,0.04718017578125,0.44427490234375,-0.185760498046875
1763367258152949000,10.702948974609376,0.0457611083984375,0.4155120849609375,-0.1981201171875
1763367258162976000,10.71297607421875,0.031097412109375,0.4127960205078125,-0.2036590576171875
1763367258173003000,10.7230029296875,0.0123443603515625,0.4237518310546875,-0.20477294921875
1763367258183030000,10.733030029296875,0.0012359619140625,0.4501953125,-0.18548583984375
1763367258193057000,10.74305712890625,-0.00506591796875,0.483001708984375,-0.1435089111328125
1763367258203085000,10.7530849609375,0.0109100341796875,0.47930908203125,-0.1112213134765625
1763367258213111800,10.76311181640625,0.108306884765625,0.47515869140625,-0.0855560302734375
1763367258223139000,10.77313916015625,0.2007598876953125,0.500946044921875,-0.0878143310546875
1763367258233166000,10.783166015625,0.3026123046875,0.5687713623046875,-0.0850372314453125
1763367258243192800,10.79319287109375,0.4174041748046875,0.69451904296875,-0.081787109375
1763367258253220000,10.80322021484375,0.650909423828125,0.9363250732421875,-0.0412139892578125
1763367258263247000,10.8132470703125,1.0055694580078125,1.3470916748046875,0.096099853515625
1763367258273273900,10.82327392578125,1.4755706787109375,1.8492431640625,0.28411865234375
1763367258283300900,10.83330078125,1.8858642578125,2.24053955078125,0.4785308837890625
1763367258293328100,10.843328125,1.6292724609375,2.2440643310546875,0.6135406494140625
1763367258303356000,10.85335595703125,1.1100311279296875,1.771514892578125,0.536773681640625
1763367258313383200,10.863383056640625,0.7874603271484375,1.32769775390625,0.3789520263671875
1763367258323410000,10.873409912109375,0.521881103515625,1.0287322998046875,0.27996826171875
1763367258333437000,10.88343701171875,0.30816650390625,0.798736572265625,0.2012176513671875
1763367258343464000,10.8934638671875,0.2541656494140625,0.6693878173828125,0.1262054443359375
1763367258353491000,10.903490966796875,0.2422332763671875,0.6458587646484375,-0.0164642333984375
1763367258363518000,10.91351806640625,0.31561279296875,0.8096466064453125,-0.25164794921875
1763367258373545000,10.923544921875,0.5179290771484375,1.17822265625,-0.470703125
1763367258383572200,10.933572265625,0.8514251708984375,1.67919921875,-0.4246368408203125
1763367258393599000,10.943598876953125,0.928314208984375,2.1118927001953125,-0.168731689453125
1763367258403627000,10.953626953125,0.5231170654296875,2.277252197265625,0.063568115234375
1763367258413654000,10.963654052734375,0.6295928955078125,2.1318206787109375,0.17620849609375
1763367258423681000,10.973680908203125,0.405120849609375,1.5442962646484375,0.1912078857421875
1763367258433708800,10.983708740234375,-0.3602752685546875,0.5802459716796875,0.1006927490234375
1763367258443736000,10.993736083984375,-0.901885986328125,-0.12103271484375,-0.1969146728515625
1763367258453763000,11.00376318359375,-1.321624755859375,-0.3046417236328125,-0.3815155029296875
1763367258463789800,11.013789794921875,-1.046630859375,-0.1903076171875,-0.5799713134765625
1763367258473816800,11.02381689453125,-0.5034942626953125,-0.0723876953125,-0.9488677978515625
1763367258483844000,11.033843994140625,-0.0949249267578125,0.1049346923828125,-1.1985626220703125
1763367258493870800,11.043870849609375,0.8058624267578125,0.5321044921875,-1.4251251220703125
1763367258503899100,11.053899169921875,0.5365447998046875,1.0380706787109375,-0.9018707275390625
1763367258513926100,11.063926025390625,-0.2857818603515625,1.3894805908203125,-0.2583160400390625
1763367258523953000,11.073952880859375,-0.8301849365234375,1.7104644775390625,0.055023193359375
1763367258533980000,11.08397998046875,-0.8323516845703125,1.7426300048828125,0.1753387451171875
1763367258544007200,11.094007080078125,-0.359039306640625,1.47943115234375,0.237213134765625
1763367258554034000,11.104033935546875,-0.0197906494140625,1.20684814453125,0.2776641845703125
1763367258564061000,11.11406103515625,0.025604248046875,1.09271240234375,0.33770751953125
1763367258574088200,11.124088134765625,-0.051055908203125,1.0876007080078125,0.36419677734375
1763367258584115000,11.134114990234375,-0.1260528564453125,1.0895538330078125,0.30303955078125
1763367258594142000,11.144141845703125,-0.13140869140625,1.0559844970703125,0.1538238525390625
1763367258604169000,11.1541689453125,-0.1154937744140625,1.00213623046875,0.0251312255859375
1763367258614197000,11.164197021484375,-0.1298065185546875,0.957855224609375,-0.0204925537109375
1763367258624224000,11.17422412109375,-0.1546173095703125,0.918548583984375,-0.0463714599609375
1763367258634250800,11.184250732421875,-0.154449462890625,0.8885345458984375,-0.0816650390625
1763367258644278000,11.194278076171875,-0.129974365234375,0.8682403564453125,-0.138702392578125
1763367258654305000,11.204304931640625,-0.0769195556640625,0.8458709716796875,-0.22119140625
1763367258664332000,11.21433203125,-0.0662994384765625,0.836517333984375,-0.269012451171875
1763367258674359000,11.224359130859375,-0.1200408935546875,0.8304595947265625,-0.233154296875
1763367258684386000,11.234385986328125,-0.1769561767578125,0.8672332763671875,-0.15374755859375
1763367258694413000,11.2444130859375,-0.186767578125,0.9340362548828125,-0.05718994140625
1763367258704439800,11.254439697265624,-0.2156982421875,0.9844818115234375,0.062957763671875
1763367258714468000,11.264468017578125,-0.184356689453125,1.061767578125,0.1746368408203125
1763367258724494800,11.274494873046875,-0.0610504150390625,1.1368255615234375,0.2749481201171875
1763367258734521900,11.28452197265625,0.0694732666015625,1.1790924072265625,0.339385986328125
1763367258744549000,11.294549072265625,0.1328277587890625,1.1401519775390625,0.3201446533203125
1763367258754576000,11.304575927734374,0.1150665283203125,1.0718994140625,0.24090576171875
1763367258764603000,11.314602783203124,0.0651702880859375,1.010162353515625,0.1555328369140625
1763367258774630100,11.324630126953124,0.02252197265625,0.9612274169921875,0.0873260498046875
1763367258784657000,11.334656982421874,0.0074615478515625,0.9153289794921875,0.0547027587890625
1763367258794684000,11.344683837890624,0.008270263671875,0.9059906005859375,0.0011749267578125
1763367258804711000,11.3547109375,0.0177154541015625,0.924224853515625,-0.0283355712890625
1763367258814738000,11.364738037109374,0.025390625,0.93048095703125,-0.0479888916015625
1763367258824766000,11.374765869140624,0.0413360595703125,0.9128875732421875,-0.0754241943359375
1763367258834793200,11.384793212890624,0.0583648681640625,0.8844757080078125,-0.0927734375
1763367258844820000,11.394820068359374,0.0215606689453125,0.855010986328125,-0.1042633056640625
1763367258854847000,11.404846923828124,-0.056488037109375,0.8401336669921875,-0.1100616455078125
1763367258864874000,11.4148740234375,-0.1384429931640625,0.8427886962890625,-0.1003570556640625
1763367258874901000,11.42490087890625,-0.2119903564453125,0.8334503173828125,-0.1179962158203125
1763367258884928000,11.434927978515624,-0.252777099609375,0.833343505859375,-0.1313323974609375
1763367258894955000,11.444955078125,-0.26629638671875,0.8837127685546875,-0.1040496826171875
1763367258904982000,11.45498193359375,-0.2151641845703125,0.994873046875,-0.029937744140625
1763367258915009000,11.465009033203126,-0.1164703369140625,1.09259033203125,0.035797119140625
1763367258925036800,11.475036865234374,0.002532958984375,1.1389617919921875,0.10479736328125
1763367258935064000,11.48506396484375,0.145904541015625,1.1453094482421875,0.1744384765625
1763367258945091000,11.495091064453124,0.2440338134765625,1.1297607421875,0.2410888671875
1763367258955117800,11.505117919921876,0.2471160888671875,1.1146392822265625,0.2757110595703125
1763367258965144800,11.515144775390626,0.1868896484375,1.13427734375,0.259674072265625
1763367258975172000,11.525172119140626,0.128173828125,1.1509552001953125,0.195953369140625
1763367258985198800,11.53519873046875,0.109375,1.120941162109375,0.127044677734375
1763367258995225900,11.545225830078126,0.115203857421875,1.072265625,0.0951385498046875
1763367259005253000,11.555253173828126,0.0879364013671875,1.071990966796875,0.1241302490234375
1763367259015280000,11.565280029296876,0.0428924560546875,1.0960235595703125,0.1771392822265625
1763367259025307000,11.575306884765626,-0.0178375244140625,1.1021881103515625,0.200469970703125
1763367259035335200,11.585335205078126,-0.07232666015625,1.123687744140625,0.235565185546875
1763367259045362000,11.59536181640625,-0.14044189453125,1.1195526123046875,0.24969482421875
1763367259055389000,11.605388916015626,-0.243011474609375,1.14984130859375,0.2812042236328125
1763367259065416200,11.615416259765626,-0.3321533203125,1.1092681884765625,0.2946319580078125
1763367259075443000,11.62544287109375,-0.3403778076171875,1.084930419921875,0.27899169921875
1763367259085470000,11.635469970703125,-0.33966064453125,1.12286376953125,0.235626220703125
1763367259095497000,11.6454970703125,-0.3187255859375,1.2242584228515625,0.0976715087890625
1763367259105524000,11.65552392578125,-0.2409210205078125,1.2691650390625,-0.1573638916015625
1763367259115551000,11.665551025390625,-0.089263916015625,1.2868194580078125,-0.41839599609375
1763367259125578000,11.675577880859375,0.2238616943359375,1.2536773681640625,-0.603302001953125
1763367259135605000,11.68560498046875,0.58404541015625,1.1585845947265625,-0.66107177734375
1763367259145633000,11.695633056640625,0.8253631591796875,1.1071014404296875,-0.5330657958984375
1763367259155660000,11.705659912109375,0.794464111328125,1.1395416259765625,-0.2612762451171875
1763367259165687000,11.71568701171875,0.50701904296875,1.1749267578125,-0.0584869384765625
1763367259175714000,11.725714111328125,0.190460205078125,1.2208099365234375,0.0393829345703125
1763367259185741000,11.735740966796875,0.07080078125,1.197967529296875,-0.0840606689453125
1763367259195767800,11.745767822265625,-0.0589447021484375,1.154571533203125,-0.255126953125
1763367259205795000,11.755795166015625,-0.198883056640625,1.1729736328125,-0.34661865234375
1763367259215822000,11.765822021484375,-0.25579833984375,1.2572479248046875,-0.386505126953125
1763367259225848800,11.775848876953125,-0.2038116455078125,1.31304931640625,-0.4239349365234375
1763367259235876000,11.7858759765625,-0.1609649658203125,1.317291259765625,-0.492950439453125
1763367259245903000,11.795903076171875,-0.1651763916015625,1.3016815185546875,-0.5014801025390625
1763367259255929900,11.805929931640625,-0.2093505859375,1.2492828369140625,-0.3923187255859375
1763367259265958100,11.815958251953125,-0.2193603515625,1.1798553466796875,-0.25128173828125
1763367259275985000,11.82598486328125,-0.3213043212890625,1.2152557373046875,-0.0617828369140625
1763367259286012000,11.836011962890625,-0.601226806640625,1.3023834228515625,0.0984039306640625
1763367259296039000,11.846038818359375,-0.400390625,1.3488616943359375,0.180633544921875
1763367259306066000,11.85606591796875,0.14532470703125,1.273773193359375,0.185302734375
1763367259316093000,11.866093017578125,0.2746124267578125,1.1616668701171875,0.1204071044921875
1763367259326120000,11.876119873046875,0.1986541748046875,1.1050567626953125,0.03509521484375
1763367259336147000,11.88614697265625,0.051513671875,1.0908966064453125,0.0553131103515625
1763367259346174000,11.896174072265625,-0.07275390625,1.04345703125,0.0028076171875
1763367259356201000,11.906200927734375,-0.131072998046875,0.985382080078125,-0.0139923095703125
1763367259366228000,11.91622802734375,-0.1493377685546875,0.957916259765625,0.0366363525390625
1763367259376256000,11.926256103515625,-0.129669189453125,0.9538726806640625,0.1266326904296875
1763367259386283000,11.936282958984375,-0.0778961181640625,0.934051513671875,0.1448822021484375
1763367259396310000,11.94631005859375,-0.09173583984375,0.8763427734375,0.1221466064453125
1763367259406337000,11.9563369140625,-0.0711822509765625,0.812896728515625,0.083221435546875
1763367259416364000,11.966364013671875,-0.0900726318359375,0.7564239501953125,0.0342864990234375
1763367259426390800,11.976390869140625,-0.1160888671875,0.685455322265625,-0.005126953125
1763367259436417000,11.9864169921875,-0.120086669921875,0.6401214599609375,-0.016448974609375
1763367259446444000,11.996444091796874,-0.1287841796875,0.5782470703125,-0.0433807373046875
1763367259456471300,12.00647119140625,-0.059326171875,0.549102783203125,-0.0592041015625
1763367259466498000,12.016498046875,-0.0157470703125,0.5097808837890625,-0.0917510986328125
1763367259476525000,12.026525146484374,0.01336669921875,0.477142333984375,-0.12371826171875
1763367259486552000,12.036552001953124,0.0354461669921875,0.467926025390625,-0.1430206298828125
1763367259496580000,12.046580078125,0.0416259765625,0.47674560546875,-0.13818359375
1763367259506607000,12.056607177734374,0.0719146728515625,0.4896240234375,-0.13812255859375
1763367259516634000,12.066634033203124,0.068603515625,0.4735870361328125,-0.14508056640625
1763367259526661000,12.0766611328125,0.0907135009765625,0.466278076171875,-0.1262969970703125
1763367259536688000,12.086688232421874,0.11212158203125,0.4366302490234375,-0.119110107421875
1763367259546715100,12.096715087890624,0.1345062255859375,0.4215240478515625,-0.12176513671875
1763367259556742100,12.1067421875,0.153900146484375,0.435821533203125,-0.1115264892578125
1763367259566769200,12.11676904296875,0.224029541015625,0.475982666015625,-0.0811920166015625
1763367259576796200,12.126796142578126,0.3271636962890625,0.547882080078125,-0.0551605224609375
1763367259586823200,12.1368232421875,0.4691009521484375,0.6511383056640625,-0.0331573486328125
1763367259596850200,12.14685009765625,0.693572998046875,0.7918548583984375,0.0006103515625
1763367259606878000,12.1568779296875,1.0360870361328125,0.9818572998046875,0.024505615234375
1763367259616905200,12.1669052734375,1.4265594482421875,1.2707061767578125,0.119781494140625
1763367259626932200,12.17693212890625,1.5586700439453125,1.6175384521484375,0.2169342041015625
1763367259636959000,12.186958984375,1.366729736328125,1.90399169921875,0.287261962890625
1763367259646986000,12.196986083984376,1.0779266357421875,1.93450927734375,0.217437744140625
1763367259657013200,12.20701318359375,0.8685150146484375,1.6464691162109375,0.04937744140625
1763367259667040000,12.2170400390625,0.766082763671875,1.2686004638671875,-0.036529541015625
1763367259677067000,12.22706689453125,0.6705322265625,0.9667205810546875,-0.0521697998046875
1763367259687094300,12.23709423828125,0.6327362060546875,0.7474212646484375,-0.0738525390625
1763367259697121000,12.24712109375,0.6359405517578125,0.674530029296875,-0.154388427734375
1763367259707148000,12.25714794921875,0.63372802734375,0.8177337646484375,-0.319915771484375
1763367259717175000,12.267175048828125,0.61749267578125,1.079559326171875,-0.3863067626953125
1763367259727202300,12.277202392578126,0.6181640625,1.209869384765625,-0.1764984130859375
1763367259737230000,12.28722998046875,0.6078338623046875,1.2709503173828125,-0.0460205078125
1763367259747257000,12.297257080078126,0.45306396484375,1.4418487548828125,-0.0452880859375
1763367259757284000,12.3072841796875,0.33221435546875,1.67462158203125,0.0387420654296875
1763367259767311000,12.31731103515625,0.456756591796875,1.75616455078125,0.0412750244140625
1763367259777338000,12.327338134765625,0.5480499267578125,1.4191741943359375,0.0831298828125
1763367259787365000,12.337365234375,-0.1102752685546875,0.7286224365234375,0.13311767578125
1763367259797392100,12.34739208984375,-0.857269287109375,0.1562957763671875,0.0471954345703125
1763367259807419100,12.357419189453125,-1.149749755859375,-0.158050537109375,-0.2303466796875
1763367259817446000,12.36744580078125,-0.837890625,-0.2693328857421875,-0.5896148681640625
1763367259827473200,12.37747314453125,0.4630279541015625,-0.13055419921875,-0.935791015625
1763367259837500200,12.387500244140625,1.2106170654296875,0.456085205078125,-1.08837890625
1763367259847528200,12.397528076171875,0.3344268798828125,1.31317138671875,-0.58331298828125
1763367259857555200,12.40755517578125,-0.2513885498046875,1.7041015625,-0.003326416015625
1763367259867582200,12.417582275390625,-0.50848388671875,1.6884765625,0.2909088134765625
1763367259877609000,12.42760888671875,-0.572540283203125,1.5989837646484375,0.3250579833984375
1763367259887636200,12.43763623046875,-0.4334716796875,1.43658447265625,0.2739715576171875
1763367259897663200,12.447663330078125,-0.1871185302734375,1.136810302734375,0.1236572265625
1763367259907690000,12.45768994140625,0.0145111083984375,0.8996429443359375,-0.0088043212890625
1763367259917717200,12.46771728515625,0.0321197509765625,0.82293701171875,-0.0139617919921875
1763367259927744300,12.477744140625,-0.0294036865234375,0.803131103515625,0.016021728515625
1763367259937771000,12.48777099609375,-0.1113128662109375,0.823760986328125,0.0353546142578125
1763367259947798000,12.497798095703125,-0.2499237060546875,0.908905029296875,0.0833282470703125
1763367259957825300,12.5078251953125,-0.2660369873046875,1.009674072265625,0.0552520751953125
1763367259967852000,12.51785205078125,-0.1753997802734375,1.0928192138671875,-0.003448486328125
1763367259977880000,12.527880126953125,-0.000762939453125,1.118499755859375,-0.0303955078125
1763367259987907000,12.537906982421875,0.0725555419921875,1.0837249755859375,-0.0403900146484375
1763367259997934000,12.54793408203125,0.1487274169921875,0.99005126953125,-0.0750885009765625
1763367260007961000,12.557961181640625,0.1743621826171875,0.8848114013671875,-0.1096954345703125
1763367260017988000,12.567988037109375,0.0688629150390625,0.8127593994140625,-0.10455322265625
1763367260028015000,12.57801513671875,-0.04791259765625,0.8677215576171875,-0.0245819091796875
1763367260038042000,12.5880419921875,-0.1902008056640625,0.946197509765625,0.0625152587890625
1763367260048069000,12.598069091796875,-0.2159423828125,1.01226806640625,0.1368408203125
1763367260058096000,12.60809619140625,-0.155303955078125,1.073211669921875,0.2310333251953125
1763367260068123100,12.618123046875,-0.086822509765625,1.1290435791015625,0.3070526123046875
1763367260078150100,12.628150146484375,-0.0061187744140625,1.1219482421875,0.320037841796875
1763367260088177200,12.63817724609375,0.07916259765625,1.071807861328125,0.2703857421875
1763367260098205200,12.648205078125,0.0903167724609375,1.0644683837890625,0.2057647705078125
1763367260108232000,12.65823193359375,0.1605072021484375,1.007659912109375,0.13909912109375
1763367260118259200,12.66825927734375,0.119049072265625,0.9460906982421875,0.0704498291015625
1763367260128286200,12.6782861328125,-0.002349853515625,0.9464874267578125,0.028961181640625
1763367260138313000,12.68831298828125,-0.01153564453125,0.9181976318359375,-0.0597381591796875
1763367260148340200,12.69834033203125,-0.040802001953125,0.90631103515625,-0.1343536376953125
1763367260158367200,12.7083671875,-0.042694091796875,0.873779296875,-0.1663818359375
1763367260168394000,12.71839404296875,-0.0191192626953125,0.8299560546875,-0.165924072265625
1763367260178421000,12.7284208984375,-0.009918212890625,0.8047637939453125,-0.1577301025390625
1763367260188448300,12.7384482421875,0.0008087158203125,0.7987213134765625,-0.1678314208984375
1763367260198475000,12.74847509765625,-0.0674285888671875,0.8001251220703125,-0.1360931396484375
1763367260208502000,12.758501953125,-0.124664306640625,0.8065032958984375,-0.1033172607421875
1763367260218529300,12.768529296875,-0.1638336181640625,0.792236328125,-0.1161041259765625
1763367260228557000,12.77855712890625,-0.2004547119140625,0.7709197998046875,-0.12445068359375
1763367260238584000,12.788583984375,-0.247833251953125,0.8199462890625,-0.1497650146484375
1763367260248611300,12.798611328125,-0.2800140380859375,0.9165191650390625,-0.179779052734375
1763367260258638000,12.80863818359375,-0.261199951171875,1.021026611328125,-0.1750640869140625
1763367260268665000,12.8186650390625,-0.17474365234375,1.12640380859375,-0.1368865966796875
1763367260278692000,12.828692138671874,-0.0296173095703125,1.208953857421875,-0.07452392578125
1763367260288719000,12.838718994140624,0.169097900390625,1.245025634765625,0.01678466796875
1763367260298746000,12.84874609375,0.4054107666015625,1.2228240966796875,0.120025634765625
1763367260308773000,12.858773193359376,0.6136627197265625,1.1651153564453125,0.20745849609375
1763367260318800100,12.868800048828126,0.6699981689453125,1.0984344482421875,0.251251220703125
1763367260328827100,12.8788271484375,0.5597686767578125,1.0600128173828125,0.26385498046875
1763367260338854100,12.888854248046876,0.313995361328125,1.059539794921875,0.24237060546875
1763367260348881000,12.898880859375,-0.01031494140625,1.070159912109375,0.211700439453125
1763367260358909200,12.9089091796875,-0.2207489013671875,1.1166839599609375,0.200286865234375
1763367260368936000,12.91893603515625,-0.2822418212890625,1.1827545166015625,0.193145751953125
1763367260378963000,12.928962890625,-0.2585296630859375,1.24896240234375,0.157562255859375
1763367260388990200,12.938990234375,-0.2451934814453125,1.3271484375,0.14312744140625
1763367260399017200,12.949017333984376,-0.2723388671875,1.4195709228515625,0.19061279296875
1763367260409044000,12.9590439453125,-0.30859375,1.484649658203125,0.207672119140625
1763367260419071200,12.9690712890625,-0.3336181640625,1.4995574951171875,0.2539825439453125
1763367260429098200,12.97909814453125,-0.3831787109375,1.4834442138671875,0.323577880859375
1763367260439125500,12.98912548828125,-0.3644256591796875,1.423797607421875,0.2541656494140625
1763367260449152500,12.999152587890626,-0.1824951171875,1.2720184326171875,0.02984619140625
1763367260459179500,13.009179443359375,0.001190185546875,1.1842803955078125,-0.11346435546875
1763367260469206500,13.01920654296875,0.1056671142578125,1.1313018798828125,-0.1876678466796875
1763367260479234600,13.029234619140626,0.23992919921875,1.0214996337890625,-0.271575927734375
1763367260489261300,13.03926123046875,0.47021484375,0.86553955078125,-0.37762451171875
1763367260499288600,13.04928857421875,0.88848876953125,0.7068634033203125,-0.57794189453125
1763367260509315600,13.059315673828126,0.90655517578125,0.701263427734375,-0.673675537109375
1763367260519342300,13.06934228515625,0.5033111572265625,0.903289794921875,-0.5660247802734375
1763367260529369600,13.07936962890625,0.1418304443359375,1.23724365234375,-0.454681396484375
