time,seconds_elapsed,z,y,x
1763367247539259000,0.0892587890625,0.5225569605827332,1.8647148609161377,-0.12633994221687317
1763367247549286000,0.099285888671875,0.6439633369445801,2.2554712295532227,-0.37544935941696167
1763367247559313000,0.10931298828125,0.725997269153595,2.4147071838378906,-0.6452036499977112
1763367247569340000,0.11933984375,0.6948111653327942,2.3161423206329346,-0.8711649775505066
1763367247579368000,0.129367919921875,0.5632573962211609,1.9672269821166992,-1.0226391553878784
1763367247589394700,0.139394775390625,0.3814360797405243,1.431715726852417,-1.0708353519439697
1763367247599422000,0.149421875,0.18233442306518555,0.9049869775772095,-1.0141255855560303
1763367247609449000,0.159448974609375,-0.017521537840366364,0.603541910648346,-0.8444615602493286
1763367247619476000,0.16947607421875,-0.2493816763162613,0.5410221219062805,-0.5522720813751221
1763367247629503000,0.1795029296875,-0.5035368204116821,0.4972652494907379,-0.18908348679542542
1763367247639530000,0.189530029296875,-0.7376899123191833,0.4354298412799835,0.155967116355896
1763367247649557000,0.199556884765625,-0.9419921636581421,0.2649674713611603,0.4288765788078308
1763367247659583700,0.209583740234375,-1.1396790742874146,0.014219675213098526,0.6255720257759094
1763367247669611000,0.219611083984375,-1.367588996887207,-0.2530440390110016,0.7831628322601318
1763367247679638000,0.229637939453125,-1.6293729543685913,-0.3408854901790619,0.9301477670669556
1763367247689665800,0.239665771484375,-1.8761142492294312,-0.28647923469543457,1.05623459815979
1763367247699693000,0.249693115234375,-1.925805926322937,0.22999370098114014,1.0834555625915527
1763367247709719800,0.2597197265625,-1.7848273515701294,1.0920681953430176,1.0155378580093384
1763367247719746800,0.269746826171875,-1.5750187635421753,2.183772563934326,0.9495944380760193
1763367247729774000,0.279774169921875,-1.4322694540023804,3.0722718238830566,0.8508378863334656
1763367247739800800,0.28980078125,-1.3858060836791992,3.7033426761627197,0.7574642896652222
1763367247749827800,0.299827880859375,-1.3905011415481567,4.038082599639893,0.7521147727966309
1763367247759854800,0.309854736328125,-1.3518626689910889,4.017977237701416,0.7694538235664368
1763367247769881900,0.3198818359375,-1.3026015758514404,3.920278549194336,0.7258884310722351
1763367247779908900,0.329908935546875,-1.4139046669006348,3.8835971355438232,0.539770781993866
1763367247789935900,0.339935791015625,-1.671958565711975,4.217897891998291,0.28161004185676575
1763367247799964000,0.3499638671875,-1.9022871255874634,4.460361003875732,0.12367871403694153
1763367247809991000,0.359990966796875,-2.0611414909362793,4.328161716461182,0.11178164184093475
1763367247820018000,0.370017822265625,-2.170675039291382,3.7699222564697266,0.2688322365283966
1763367247830045000,0.380044921875,-2.244683027267456,3.0800862312316895,0.6636674404144287
1763367247840072000,0.390072021484375,-2.31838059425354,2.7056291103363037,1.1191883087158203
1763367247850099000,0.400098876953125,-2.3865790367126465,2.2281761169433594,1.5985666513442993
1763367247860126000,0.4101259765625,-2.4307780265808105,2.061997890472412,1.7741140127182007
1763367247870153000,0.420153076171875,-2.3684120178222656,2.29217791557312,1.359184980392456
1763367247880180000,0.430179931640625,-2.2122483253479004,2.148383140563965,0.7872045040130615
1763367247890206700,0.440206787109375,-2.1355812549591064,1.7508671283721924,0.295141339302063
1763367247900235000,0.450235107421875,-2.2354702949523926,1.5948286056518555,-0.15835559368133545
1763367247910261800,0.46026171875,-2.4908909797668457,1.6453332901000977,-0.5023590326309204
1763367247920288800,0.470288818359375,-2.8154149055480957,2.014226198196411,-0.7115958333015442
1763367247930316000,0.48031591796875,-3.124758243560791,2.4695162773132324,-0.7119616866111755
1763367247940342800,0.4903427734375,-3.364271879196167,2.649177074432373,-0.4906631410121918
1763367247950369800,0.500369873046875,-3.4450201988220215,2.5894875526428223,-0.16490286588668823
1763367247960397000,0.51039697265625,-3.4091978073120117,2.425053119659424,0.17399583756923676
1763367247970424000,0.520424072265625,-3.315445899963379,2.245697498321533,0.47332605719566345
1763367247980450800,0.530450927734375,-3.0946271419525146,2.176365852355957,0.7078868746757507
1763367247990477800,0.540477783203125,-2.775808095932007,2.2275102138519287,0.8388243317604065
1763367248000505900,0.550505859375,-2.4892168045043945,2.323437452316284,0.8700141906738281
1763367248010532900,0.560532958984375,-2.2910268306732178,2.3197882175445557,0.843376100063324
1763367248020560000,0.570559814453125,-2.1401684284210205,2.178384304046631,0.6967232823371887
1763367248030587000,0.5805869140625,-2.0108795166015625,1.8262780904769897,0.41078755259513855
1763367248040614000,0.59061376953125,-1.8919728994369507,1.2173916101455688,-0.061444174498319626
1763367248050641000,0.600640869140625,-1.7356706857681274,0.5595594048500061,-0.7057501077651978
1763367248060668000,0.61066796875,-1.6618212461471558,0.15021184086799622,-1.2935690879821777
1763367248070695000,0.62069482421875,-1.4529187679290771,0.24425539374351501,-1.6710089445114136
1763367248080722000,0.630721923828125,-0.8212355971336365,0.3173186779022217,-2.0676429271698
1763367248090748700,0.640748779296875,-0.19003738462924957,0.4595398008823395,-2.4112284183502197
1763367248100777000,0.65077685546875,0.303963303565979,0.43330633640289307,-2.6734495162963867
1763367248110804000,0.660803955078125,0.6899435520172119,0.10081418603658676,-3.1271846294403076
1763367248120831000,0.6708310546875,0.7120016813278198,-0.3289875090122223,-3.5442726612091064
1763367248130858000,0.68085791015625,0.5238385796546936,-0.7615292072296143,-3.736947774887085
1763367248140885000,0.690885009765625,0.23225654661655426,-0.9301259517669678,-3.628920793533325
1763367248150911700,0.700911865234375,0.1412201225757599,-0.9229599237442017,-3.2734291553497314
1763367248160939000,0.71093896484375,0.10221172869205475,-0.8393348455429077,-2.8386261463165283
1763367248170966000,0.720966064453125,0.07205431908369064,-0.6725448966026306,-2.2865123748779297
1763367248180992800,0.73099267578125,0.11091437190771103,-0.44073355197906494,-1.7250782251358032
1763367248191020000,0.74102001953125,0.09782245755195618,0.04790525883436203,-1.1233224868774414
1763367248201047800,0.7510478515625,0.04977290704846382,0.3217993676662445,-0.5092605948448181
1763367248211074800,0.76107470703125,-0.037439752370119095,0.43951863050460815,0.05998807027935982
1763367248221102000,0.77110205078125,-0.17533662915229797,0.4531819820404053,0.4496684670448303
1763367248231128800,0.78112890625,-0.3041025698184967,0.46425721049308777,0.6548426151275635
1763367248241155800,0.79115576171875,-0.4299425184726715,0.3426056206226349,0.7683928608894348
1763367248251182800,0.801182861328125,-0.48444288969039917,0.12846416234970093,0.8767791986465454
1763367248261209900,0.8112099609375,-0.40323805809020996,0.08118478953838348,1.0110665559768677
1763367248271236900,0.82123681640625,-0.1858609914779663,0.3087255358695984,1.235589861869812
1763367248281263900,0.831263916015625,0.09275492280721664,0.6239218711853027,1.5663100481033325
1763367248291291000,0.841290771484375,0.3374769389629364,0.8827421069145203,1.977980136871338
1763367248301319000,0.85131884765625,0.4300795793533325,1.0510038137435913,2.4333701133728027
1763367248311346000,0.861345947265625,0.310054212808609,1.1301997900009155,2.8938591480255127
1763367248321373000,0.871373046875,0.04841410368680954,1.1552678346633911,3.350999355316162
1763367248331400000,0.88139990234375,-0.2774074375629425,0.9360769987106323,3.7818400859832764
1763367248341427000,0.891427001953125,-0.6008342504501343,0.5748293399810791,4.183347702026367
1763367248351453700,0.90145361328125,-0.745057225227356,0.6328161954879761,4.433071613311768
1763367248361481000,0.91148095703125,-0.6224460601806641,1.2588422298431396,4.367415428161621
1763367248371508000,0.921508056640625,-0.3768352270126343,1.5241864919662476,3.997565507888794
1763367248381534700,0.93153466796875,-0.15551482141017914,1.2838367223739624,3.4292807579040527
1763367248391562000,0.94156201171875,0.02711259201169014,1.0022014379501343,2.672513961791992
1763367248401589800,0.95158984375,0.1430671513080597,0.6751002073287964,1.9549754858016968
1763367248411616800,0.96161669921875,0.21292029321193695,0.2866170108318329,1.518139123916626
1763367248421644000,0.97164404296875,0.2476295381784439,-0.14213116466999054,1.3274134397506714
1763367248431670800,0.9816708984375,0.22860756516456604,-0.5112593173980713,1.304552674293518
1763367248441697800,0.99169775390625,0.20342710614204407,-0.6479839086532593,1.409762978553772
1763367248451724800,1.001724853515625,0.2349274754524231,-0.44106313586235046,1.5879334211349487
1763367248461752000,1.011751953125,0.3301415741443634,-0.0745844841003418,1.7703660726547241
1763367248471778800,1.02177880859375,0.37093889713287354,0.5110681653022766,1.8552712202072144
1763367248481805800,1.031805908203125,0.3356744050979614,0.8184603452682495,1.8864357471466064
1763367248491833000,1.0418330078125,0.26270705461502075,0.8044555187225342,1.8917399644851685
1763367248501860900,1.05186083984375,0.09897273033857346,0.6494337320327759,1.8740472793579102
1763367248511888000,1.061887939453125,-0.11259661614894867,0.012421544641256332,1.8272929191589355
1763367248521915000,1.071914794921875,-0.1369115561246872,-0.5283162593841553,1.7071030139923096
1763367248531942000,1.08194189453125,0.14315100014209747,-0.26161107420921326,1.4538707733154297
1763367248541969000,1.091968994140625,0.6399245262145996,0.33199024200439453,1.1615893840789795
1763367248551995600,1.10199560546875,0.9448572397232056,0.4947807192802429,1.0913587808609009
1763367248562023000,1.11202294921875,0.9777949452400208,-0.6781779527664185,1.2248233556747437
1763367248572050000,1.1220498046875,1.0345311164855957,-0.26863449811935425,1.0237867832183838
1763367248582076700,1.13207666015625,0.9604560732841492,0.20523826777935028,0.9029572606086731
1763367248592104000,1.14210400390625,0.7063297629356384,0.4639468789100647,1.143538475036621
1763367248602132000,1.152132080078125,0.2841835916042328,0.5577633380889893,1.576740026473999
1763367248612158700,1.16215869140625,-0.1087513417005539,0.43358898162841797,2.0173816680908203
1763367248622186000,1.17218603515625,-0.40665680170059204,0.4759593605995178,2.3378210067749023
1763367248632213000,1.182212890625,-0.5834071636199951,0.7963615655899048,2.5351812839508057
1763367248642239700,1.19223974609375,-0.6595749258995056,1.0750656127929688,2.601384401321411
1763367248652266800,1.202266845703125,-0.7233012318611145,1.1493422985076904,2.5097434520721436
1763367248662294000,1.2122939453125,-0.8119906187057495,0.9124916791915894,2.267237901687622
1763367248672320800,1.22232080078125,-0.8225176334381104,0.5932239890098572,1.924461007118225
1763367248682347800,1.23234765625,-0.8567861318588257,0.3734397292137146,1.5740995407104492
1763367248692375800,1.242375732421875,-0.9153724908828735,0.07939504832029343,1.3771289587020874
1763367248702402800,1.25240283203125,-1.0050195455551147,-0.05158320069313049,1.323364019393921
1763367248712429800,1.262429931640625,-1.1647629737854004,-0.008440548554062843,1.3261076211929321
1763367248722456800,1.272456787109375,-1.3288267850875854,0.06645819544792175,1.4503834247589111
1763367248732483800,1.28248388671875,-1.5237849950790405,0.1262691468000412,1.7232474088668823
1763367248742510800,1.2925107421875,-1.788766860961914,0.11403804272413254,2.1546876430511475
1763367248752537900,1.302537841796875,-2.016212224960327,0.2540696859359741,2.5530662536621094
1763367248762564900,1.31256494140625,-2.16778302192688,0.42009326815605164,2.792173147201538
1763367248772591900,1.322591796875,-2.2827672958374023,0.5245383977890015,2.7375097274780273
1763367248782619000,1.332618896484375,-2.3490264415740967,0.8969279527664185,2.272092342376709
1763367248792647000,1.34264697265625,-2.148073673248291,1.2085113525390625,1.510270118713379
1763367248802674000,1.352673828125,-1.6916996240615845,0.9192230701446533,0.4929393529891968
1763367248812700700,1.36270068359375,-1.3334987163543701,0.34907266497612,-0.2661219537258148
1763367248822728000,1.37272802734375,-1.316023826599121,-0.02964535355567932,-0.4508529007434845
1763367248832755000,1.3827548828125,-1.5680357217788696,-0.06595021486282349,-0.19391845166683197
1763367248842781700,1.39278173828125,-1.8125423192977905,0.13847722113132477,0.13656306266784668
1763367248852809000,1.40280908203125,-1.958612322807312,0.585632860660553,0.37197503447532654
1763367248862836000,1.4128359375,-2.3151113986968994,1.1480056047439575,0.4985625445842743
1763367248872862700,1.42286279296875,-2.5943856239318848,1.5992177724838257,0.7578339576721191
1763367248882891000,1.43289111328125,-2.5950682163238525,1.948657512664795,1.10601007938385
1763367248892917800,1.442917724609375,-2.328943967819214,2.0235228538513184,1.4914979934692383
1763367248902944800,1.45294482421875,-1.9011178016662598,2.0171728134155273,1.698610544204712
1763367248912972000,1.462971923828125,-1.4992250204086304,1.8281656503677368,1.6143990755081177
1763367248922998800,1.472998779296875,-1.4216511249542236,1.3621686697006226,1.3489793539047241
1763367248933025800,1.48302587890625,-1.5183486938476562,0.82570880651474,0.9884035587310791
1763367248943052800,1.493052734375,-1.4538415670394897,0.28966668248176575,0.6166918277740479
1763367248953080000,1.503080078125,-1.2694849967956543,-0.2008337527513504,0.315312922000885
1763367248963106800,1.51310693359375,-1.1114492416381836,-0.5037949681282043,0.07875949889421463
1763367248973133800,1.5231337890625,-0.8977791666984558,-0.609654426574707,-0.08039682358503342
1763367248983161900,1.533161865234375,-0.707687258720398,-0.5328466892242432,-0.22531485557556152
1763367248993188900,1.54318896484375,-0.5740466713905334,-0.5008159279823303,-0.40855732560157776
1763367249003216000,1.5532158203125,-0.5627521872520447,-0.5726999640464783,-0.6088749766349792
1763367249013243000,1.563242919921875,-0.6939602494239807,-0.788238525390625,-0.7055670619010925
1763367249023270000,1.573269775390625,-0.8395392894744873,-0.936475396156311,-0.7844097018241882
1763367249033297000,1.583296875,-0.850196123123169,-0.7731863260269165,-0.8372320532798767
1763367249043323600,1.59332373046875,-0.7451304197311401,-0.48817482590675354,-0.7893811464309692
1763367249053351000,1.603350830078125,-0.5921692848205566,-0.3422996997833252,-0.6082826852798462
1763367249063378000,1.6133779296875,-0.4536079466342926,-0.5183420777320862,-0.32452523708343506
1763367249073405700,1.62340576171875,-0.43551337718963623,-0.8215638399124146,-0.019914962351322174
1763367249083433000,1.633432861328125,-0.5071923732757568,-0.843646764755249,0.3145058751106262
1763367249093460000,1.6434599609375,-0.6215894818305969,-0.5730999708175659,0.7726343274116516
1763367249103486700,1.65348681640625,-0.6966160535812378,-0.3322652578353882,0.9439805150032043
1763367249113514000,1.663513916015625,-0.8408470153808594,-0.1340508759021759,0.7535760998725891
1763367249123541000,1.673541015625,-1.1933057308197021,-0.7151654362678528,0.6397185325622559
1763367249133567700,1.683567626953125,-1.6700043678283691,-1.2199589014053345,0.5110512971878052
1763367249143594800,1.6935947265625,-2.2337875366210938,-1.356732726097107,0.1954387128353119
1763367249153622000,1.7036220703125,-2.5864739418029785,-1.2943599224090576,-0.14618971943855286
1763367249163648800,1.713648681640625,-2.433058261871338,-1.1233642101287842,-0.3795265555381775
1763367249173677000,1.723677001953125,-1.8401416540145874,-1.033825159072876,-0.5487123131752014
1763367249183703800,1.733703857421875,-1.141772747039795,-0.9986240267753601,-0.6748462915420532
1763367249193730800,1.743730712890625,-0.6168531179428101,-0.7945732474327087,-0.6544385552406311
1763367249203757800,1.7537578125,-0.5682560205459595,-0.49721428751945496,-0.5475286245346069
1763367249213784800,1.763784912109375,-0.605458676815033,-0.5114981532096863,-0.4391680359840393
1763367249223811800,1.773811767578125,-0.5923258662223816,-0.6491721272468567,-0.3713141679763794
1763367249233838800,1.7838388671875,-0.6815434098243713,-0.6650527715682983,-0.3316199779510498
1763367249243865900,1.793865966796875,-0.9167474508285522,-0.5263588428497314,-0.27750399708747864
1763367249253892900,1.803892822265625,-1.2640537023544312,-0.4587233364582062,-0.1765797883272171
1763367249263921000,1.8139208984375,-1.6399319171905518,-0.32551226019859314,-0.05759140104055405
1763367249273948000,1.823947998046875,-1.8022786378860474,-0.12426964938640594,0.26554396748542786
1763367249283975000,1.833974853515625,-1.7165032625198364,0.07045429944992065,0.5930949449539185
1763367249294002000,1.844001953125,-1.4121471643447876,0.1890331357717514,0.646038293838501
1763367249304028700,1.854028564453125,-0.9359565377235413,0.19270457327365875,0.46527332067489624
1763367249314056000,1.864055908203125,-0.45436519384384155,0.13528689742088318,0.13916979730129242
1763367249324083000,1.8740830078125,-0.011810965836048126,0.09965620189905167,-0.1792939305305481
1763367249334109700,1.884109619140625,0.42797863483428955,0.21091310679912567,-0.32945576310157776
1763367249344137000,1.894136962890625,0.865858256816864,0.5817852020263672,-0.31257984042167664
1763367249354164700,1.904164794921875,1.1892893314361572,1.0408047437667847,-0.14756007492542267
1763367249364191700,1.914191650390625,1.3506014347076416,1.3880125284194946,-0.04370265454053879
1763367249374219000,1.924218994140625,1.0603253841400146,1.7105199098587036,-0.1439940333366394
1763367249384245800,1.934245849609375,0.5184580683708191,1.8411756753921509,-0.500947892665863
1763367249394272800,1.944272705078125,-0.11019964516162872,1.7389495372772217,-1.0262153148651123
1763367249404300000,1.954300048828125,-0.8535779118537903,1.4881857633590698,-1.5934805870056152
1763367249414326800,1.964326904296875,-1.6753652095794678,1.0529941320419312,-2.233158588409424
1763367249424354300,1.974354248046875,-2.45829701423645,0.933746874332428,-2.9641664028167725
1763367249434381600,1.984381591796875,-3.133633852005005,0.7567178010940552,-3.646860361099243
1763367249444408300,1.994408203125,-3.6078107357025146,0.8097671866416931,-4.1351847648620605
1763367249454436400,2.004436279296875,-4.0300374031066895,0.9948528409004211,-4.255457878112793
1763367249464463400,2.01446337890625,-3.9117484092712402,-0.21611875295639038,-3.0212466716766357
1763367249474490400,2.024490478515625,-3.3852901458740234,-0.8246474266052246,-1.5620557069778442
1763367249484517400,2.034517333984375,-3.07515025138855,0.3767351508140564,-1.457214593887329
1763367249494544400,2.04454443359375,-2.391472101211548,1.6682881116867065,-1.6980971097946167
1763367249504571400,2.0545712890625,-1.270014762878418,2.4291789531707764,-1.9345011711120605
1763367249514598400,2.064598388671875,-0.405520498752594,2.532562732696533,-1.9549204111099243
1763367249524625400,2.07462548828125,-0.24458567798137665,2.5332560539245605,-1.543614387512207
1763367249534652400,2.08465234375,-0.3900776505470276,2.5691885948181152,-1.0615551471710205
1763367249544679400,2.094679443359375,-0.6481762528419495,2.7618274688720703,-0.8103785514831543
1763367249554707200,2.104707275390625,-0.9414636492729187,2.9567863941192627,-0.831946074962616
1763367249564734500,2.114734375,-1.2373906373977661,2.984872579574585,-1.0023341178894043
1763367249574761500,2.124761474609375,-1.4038978815078735,2.7319424152374268,-1.1851751804351807
1763367249584788200,2.134788330078125,-1.4671175479888916,2.4239752292633057,-1.3125702142715454
1763367249594815500,2.1448154296875,-1.3986704349517822,1.8033008575439453,-1.1469461917877197
1763367249604842500,2.154842529296875,-1.3617517948150635,1.2798869609832764,-0.9364665746688843
1763367249614869200,2.164869140625,-1.604523777961731,1.0720248222351074,-0.8272236585617065
1763367249624896300,2.174896240234375,-1.845597743988037,1.019740343093872,-0.7598115801811218
1763367249634923500,2.184923583984375,-1.9453120231628418,1.12149977684021,-0.6922577619552612
1763367249644950300,2.1949501953125,-1.8227530717849731,0.9528149366378784,-0.44377681612968445
1763367249654978600,2.204978515625,-1.5769078731536865,0.622327983379364,-0.30747276544570923
1763367249665005600,2.215005615234375,-1.4294084310531616,0.6488360166549683,0.028217367827892303
1763367249675032300,2.2250322265625,-1.1658819913864136,0.7222691178321838,0.28551456332206726
1763367249685059300,2.235059326171875,-0.8340023159980774,0.6904852986335754,0.2967778742313385
1763367249695086600,2.245086669921875,-0.44567471742630005,0.4413721263408661,-0.007721779868006706
1763367249705113300,2.25511328125,-0.06719424575567245,-0.3420089781284332,-0.593719482421875
1763367249715140400,2.265140380859375,0.0736144408583641,-0.5672516226768494,-0.6831071972846985
1763367249725167600,2.275167724609375,0.3457266390323639,-0.11591613292694092,-0.3688502311706543
1763367249735194400,2.2851943359375,0.44078871607780457,0.16996009647846222,-0.3577136695384979
1763367249745221400,2.295221435546875,0.42364540696144104,0.25348934531211853,-0.41382062435150146
1763367249755249400,2.30524951171875,0.32775577902793884,0.24131467938423157,-0.35128962993621826
1763367249765276400,2.3152763671875,0.22235773503780365,0.1621367633342743,-0.21823328733444214
1763367249775303400,2.325303466796875,0.006665734574198723,0.021593689918518066,-0.10796565562486649
1763367249785330200,2.335330078125,-0.04825024679303169,-0.13035190105438232,0.009274418465793133
1763367249795357400,2.345357421875,-0.08686572313308716,-0.21802009642124176,0.17817868292331696
1763367249805384400,2.355384521484375,-0.1418837159872055,-0.4103192389011383,0.24460431933403015
1763367249815411500,2.365411376953125,-0.0821700245141983,-0.3003157079219818,0.39513278007507324
1763367249825438500,2.3754384765625,-0.07067342102527618,-0.17181949317455292,0.5124048590660095
1763367249835465500,2.385465576171875,-0.1093929335474968,-0.08327536284923553,0.6341620087623596
1763367249845492500,2.395492431640625,-0.15834395587444305,-0.009213918820023537,0.77945876121521
1763367249855520500,2.4055205078125,-0.1789364367723465,0.054249975830316544,0.915294349193573
1763367249865547500,2.415547607421875,-0.17463649809360504,0.12273050099611282,1.0129884481430054
1763367249875574300,2.42557421875,-0.14043183624744415,0.18637403845787048,1.084348201751709
1763367249885601300,2.435601318359375,-0.10192519426345825,0.13783712685108185,1.128286600112915
1763367249895628500,2.445628662109375,-0.037983328104019165,0.07250478863716125,1.165951132774353
1763367249905655300,2.4556552734375,0.07641701400279999,-0.08049887418746948,1.0985249280929565
1763367249915682300,2.465682373046875,0.22960804402828217,-0.14664173126220703,0.9013561010360718
1763367249925709600,2.47570947265625,0.35053500533103943,-0.1594235599040985,0.4947012662887573
1763367249935736300,2.485736328125,0.4115718901157379,-0.08071973919868469,-0.05160975083708763
1763367249945763300,2.495763427734375,0.4839771091938019,-0.0675559937953949,-0.6408450603485107
1763367249955791400,2.505791259765625,0.5661525726318359,-0.009878874756395817,-1.0441380739212036
1763367249965818400,2.515818359375,0.5978532433509827,0.21510231494903564,-1.206484079360962
1763367249975845400,2.525845458984375,0.5509456396102905,0.5648636817932129,-1.165304183959961
1763367249985872400,2.535872314453125,0.47168973088264465,1.0557618141174316,-0.9887304306030273
1763367249995899400,2.5458994140625,0.3631438910961151,1.4689191579818726,-0.753140926361084
1763367250005926400,2.555926513671875,0.2681007385253906,1.5556366443634033,-0.474880576133728
1763367250015953400,2.565953369140625,0.20388349890708923,1.4301035404205322,-0.10129047185182571
1763367250025980400,2.57598046875,0.07845794409513474,1.2166844606399536,0.3576076030731201
1763367250036007400,2.58600732421875,-0.12173834443092346,0.8158080577850342,0.6899968981742859
1763367250046034400,2.596034423828125,-0.2704431414604187,0.5070403814315796,0.7655523419380188
1763367250056062500,2.6060625,-0.1989058405160904,0.301013708114624,0.4652189016342163
1763367250066089500,2.61608935546875,0.09031159430742264,0.4192385971546173,0.0036241000052541494
1763367250076116200,2.6261162109375,0.45453453063964844,0.5137106776237488,-0.2392369657754898
1763367250086143500,2.6361435546875,0.6805745959281921,0.4378734529018402,-0.5169926881790161
1763367250096170500,2.64617041015625,0.8779858946800232,0.3610207438468933,-0.9265336394309998
1763367250106197200,2.656197265625,1.1947537660598755,0.14119435846805573,-0.8350253105163574
1763367250116224300,2.666224365234375,1.1427420377731323,-0.4158477187156677,-0.13412922620773315
1763367250126251500,2.67625146484375,0.8213915228843689,-1.2263914346694946,0.7041673064231873
1763367250136278300,2.6862783203125,0.4090050458908081,-1.8607066869735718,1.254722237586975
1763367250146306600,2.696306640625,-0.004382266663014889,-1.7305669784545898,1.3982727527618408
1763367250156333600,2.70633349609375,-0.49802327156066895,-0.9987316131591797,1.089028239250183
1763367250166360300,2.7163603515625,-0.8667155504226685,-1.074536919593811,0.6990079879760742
1763367250176387300,2.72638720703125,-0.9336948990821838,-2.0289225578308105,0.6848577857017517
1763367250186414600,2.73641455078125,-0.8028370141983032,-2.7126619815826416,1.0540709495544434
1763367250196441300,2.74644140625,-0.6864637732505798,-2.5706849098205566,1.3075681924819946
1763367250206468400,2.75646826171875,-0.70722496509552,-1.6087197065353394,1.1813924312591553
1763367250216495600,2.76649560546875,-0.7100253105163574,-0.4923979938030243,0.8648083209991455
1763367250226522400,2.7765224609375,-0.6115996837615967,-0.1203906312584877,0.6570929884910583
1763367250236549400,2.78654931640625,-0.5253701210021973,-0.46532028913497925,0.6095108985900879
1763367250246577400,2.796577392578125,-0.42206478118896484,-1.0032987594604492,0.7314519882202148
1763367250256604400,2.8066044921875,-0.2684599459171295,-1.3623120784759521,0.9945763349533081
1763367250266631400,2.81663134765625,-0.07953504472970963,-1.5448098182678223,1.2964808940887451
1763367250276658200,2.826658203125,0.10443367809057236,-1.6184791326522827,1.5734248161315918
1763367250286685400,2.836685546875,0.20250166952610016,-1.6337441205978394,1.7273669242858887
1763367250296712400,2.84671240234375,0.187478169798851,-1.6578742265701294,1.7427635192871094
1763367250306739500,2.856739501953125,0.08270009607076645,-1.6641645431518555,1.641322135925293
1763367250316766500,2.866766357421875,-0.07752546668052673,-1.6584806442260742,1.4358909130096436
1763367250326793500,2.87679345703125,-0.2588143050670624,-1.7415344715118408,1.2279624938964844
1763367250336820500,2.886820556640625,-0.4422949254512787,-1.9117467403411865,1.0531171560287476
1763367250346848500,2.8968486328125,-0.6219913959503174,-2.124899387359619,0.9580740332603455
1763367250356875500,2.90687548828125,-0.7994585037231445,-2.312385082244873,0.9317383170127869
1763367250366902300,2.91690234375,-0.9885786175727844,-2.3264999389648438,0.9746293425559998
1763367250376929300,2.92692919921875,-1.1436032056808472,-2.140467882156372,1.071866750717163
1763367250386956500,2.93695654296875,-1.265925407409668,-1.7618048191070557,1.2029494047164917
1763367250396983300,2.9469833984375,-1.3650319576263428,-1.3535722494125366,1.340706467628479
1763367250407010300,2.95701025390625,-1.4254595041275024,-0.9262835383415222,1.4729892015457153
1763367250417037600,2.96703759765625,-1.4494343996047974,-0.5201237797737122,1.6196718215942383
1763367250427064000,2.97706396484375,-1.5031468868255615,-0.1578076034784317,1.6644771099090576
1763367250437091800,2.987091796875,-1.921598196029663,0.10698404908180237,1.5141023397445679
1763367250447119000,2.997119140625,-2.1862070560455322,0.3770458698272705,0.9655584692955017
1763367250457145900,3.007145751953125,-1.1570031642913818,1.0165045261383057,0.38785338401794434
1763367250467172900,3.0171728515625,0.01600985787808895,1.1786476373672485,0.5995155572891235
1763367250477200000,3.027199951171875,0.27942565083503723,0.6805036067962646,1.0684378147125244
1763367250487227000,3.037226806640625,0.1318117082118988,-0.25460174679756165,1.2753978967666626
1763367250497254000,3.04725390625,0.05768616870045662,-1.1350806951522827,1.173331379890442
1763367250507281000,3.057281005859375,0.07411973923444748,-1.5483866930007935,0.9344378709793091
1763367250517308000,3.067307861328125,0.011891092173755169,-1.6293339729309082,0.714610755443573
1763367250527336000,3.0773359375,-0.07907077670097351,-1.6515525579452515,0.5691291689872742
1763367250537362700,3.08736279296875,-0.1803867369890213,-1.6129928827285767,0.5164023041725159
1763367250547390000,3.097389892578125,-0.3087010383605957,-1.490066647529602,0.5339112877845764
1763367250557417000,3.1074169921875,-0.3837151527404785,-1.2982189655303955,0.6116380095481873
1763367250567444000,3.11744384765625,-0.4328611493110657,-1.0437781810760498,0.7252865433692932
1763367250577471000,3.127470947265625,-0.5393118262290955,-0.7791380882263184,0.8172616958618164
1763367250587498000,3.137498046875,-0.640825092792511,-0.5249417424201965,0.8376335501670837
1763367250597525000,3.14752490234375,-0.693136990070343,-0.2992916405200958,0.8297556638717651
1763367250607551700,3.1575517578125,-0.7075854539871216,-0.1062164455652237,0.8497679829597473
1763367250617580000,3.167580078125,-0.6884969472885132,0.03232565149664879,0.9439964890480042
1763367250627606800,3.177606689453125,-0.634784996509552,0.05941718816757202,1.0775710344314575
1763367250637633800,3.1876337890625,-0.5336285829544067,-0.10890074074268341,1.1387979984283447
1763367250647661000,3.1976611328125,-0.381374329328537,-0.4481174051761627,1.0649232864379883
1763367250657687800,3.207687744140625,-0.23629041016101837,-0.8759986758232117,0.8792864084243774
1763367250667714800,3.21771484375,-0.0870543122291565,-1.2070527076721191,0.6200127601623535
1763367250677742000,3.2277421875,0.06471472233533859,-1.3129445314407349,0.36305302381515503
1763367250687768800,3.237768798828125,0.22004331648349762,-1.187861680984497,0.11598679423332214
1763367250697795800,3.2477958984375,0.2753918170928955,-1.0325137376785278,-0.048351071774959564
1763367250707823900,3.257823974609375,0.1915871948003769,-1.0384557247161865,-0.14430688321590424
1763367250717851000,3.267850830078125,0.18431787192821503,-1.1517325639724731,-0.23145927488803864
1763367250727878000,3.2778779296875,0.3299190402030945,-1.1969679594039917,-0.33234646916389465
1763367250737905000,3.28790478515625,0.48487818241119385,-1.2161964178085327,-0.33495375514030457
1763367250747932000,3.297931884765625,0.5367512702941895,-1.1968743801116943,-0.2299881875514984
1763367250757959000,3.307958984375,0.446368545293808,-1.027283787727356,-0.14297671616077423
1763367250767986000,3.31798583984375,0.407216340303421,-0.5915464162826538,-0.23615725338459015
1763367250778013000,3.328012939453125,0.44826266169548035,-0.017072096467018127,-0.44192007184028625
1763367250788040000,3.3380400390625,0.5189024806022644,0.6193227171897888,-0.726288914680481
1763367250798067700,3.348067626953125,0.6538217663764954,1.060261845588684,-0.9608598947525024
1763367250808095000,3.358094970703125,0.7416325211524963,1.063806414604187,-1.0733449459075928
1763367250818122000,3.3681220703125,0.6983097195625305,0.6622912883758545,-1.1384024620056152
1763367250828148700,3.378148681640625,0.4965513050556183,0.2177410125732422,-1.3130989074707031
1763367250838176000,3.388176025390625,0.21610835194587708,-0.015717763453722,-1.6421566009521484
1763367250848203000,3.398203125,-0.11843740195035934,-0.07589588314294815,-2.138617515563965
1763367250858229800,3.408229736328125,-0.47418493032455444,-0.018899105489253998,-2.7108805179595947
1763367250868256800,3.4182568359375,-0.7556341886520386,-0.18404358625411987,-3.2168521881103516
1763367250878284000,3.428283935546875,-0.794979989528656,-0.6167483329772949,-3.452713966369629
1763367250888311800,3.438311767578125,-0.6699341535568237,-1.208977222442627,-3.3639912605285645
1763367250898338800,3.4483388671875,-0.41313090920448303,-1.6621310710906982,-2.967791795730591
1763367250908366000,3.458365966796875,-0.18252143263816833,-2.0685994625091553,-2.4926092624664307
1763367250918392800,3.468392822265625,-0.14300911128520966,-2.2640092372894287,-2.083766460418701
1763367250928419800,3.478419921875,-0.19398733973503113,-2.1839396953582764,-1.9574693441390991
1763367250938447000,3.488447021484375,-0.22668969631195068,-1.7838152647018433,-2.0547056198120117
1763367250948473900,3.498473876953125,-0.3205581307411194,-1.198875904083252,-2.210181713104248
1763367250958500900,3.5085009765625,-0.4188336133956909,-0.4858545958995819,-2.273453950881958
1763367250968528000,3.51852783203125,-0.49393874406814575,0.2293839156627655,-2.2754552364349365
1763367250978556000,3.528555908203125,-0.49421653151512146,0.766036331653595,-2.141550064086914
1763367250988583000,3.5385830078125,-0.4006687104701996,1.0557464361190796,-1.9157648086547852
1763367250998609700,3.548609619140625,-0.2810039818286896,1.0719572305679321,-1.77644944190979
1763367251008637000,3.558636962890625,-0.10840796679258347,0.8391324877738953,-1.7369718551635742
1763367251018664000,3.568663818359375,0.06189987063407898,0.6163656115531921,-1.7688268423080444
1763367251028690700,3.578690673828125,0.20987309515476227,0.4258635342121124,-1.8174985647201538
1763367251038718000,3.588718017578125,0.3170808255672455,0.3278675973415375,-1.8222508430480957
1763367251048745000,3.598744873046875,0.40803414583206177,0.33242371678352356,-1.7839244604110718
1763367251058772700,3.608772705078125,0.4964938461780548,0.5448132753372192,-1.696962594985962
1763367251068800000,3.618800048828125,0.5682237148284912,0.8285179734230042,-1.5771938562393188
1763367251078827000,3.628826904296875,0.649772584438324,0.9908735156059265,-1.4380302429199219
1763367251088853800,3.638853759765625,0.6989840269088745,1.0842626094818115,-1.2887566089630127
1763367251098881000,3.648881103515625,0.6875460147857666,1.1384471654891968,-1.166825532913208
1763367251108908000,3.658907958984375,0.676692545413971,1.173500657081604,-1.0834158658981323
1763367251118934800,3.668934814453125,0.6719722151756287,1.2558753490447998,-1.0416263341903687
1763367251128961800,3.6789619140625,0.6618388891220093,1.4511464834213257,-0.9838359951972961
1763367251138989000,3.688989013671875,0.6428502798080444,1.5002645254135132,-0.920325517654419
1763367251149015800,3.699015869140625,0.6260627508163452,1.4214602708816528,-0.8208495378494263
1763367251159043800,3.7090439453125,0.6640214323997498,1.2892566919326782,-0.6993322968482971
1763367251169070800,3.71907080078125,0.6819226741790771,1.0570032596588135,-0.5723304152488708
1763367251179097900,3.729097900390625,0.6800868511199951,0.872090220451355,-0.43147149682044983
1763367251189124900,3.739124755859375,0.6637201309204102,0.7508538365364075,-0.2936569154262543
1763367251199151900,3.74915185546875,0.6199393272399902,0.6508486270904541,-0.15185008943080902
1763367251209179000,3.759178955078125,0.529316246509552,0.6290980577468872,-0.000019012262782780454
1763367251219206000,3.769205810546875,0.441148579120636,0.6986365914344788,0.14817771315574646
1763367251229233000,3.77923291015625,0.3781174123287201,0.767745316028595,0.29035109281539917
1763367251239261000,3.789260986328125,0.3421404957771301,0.7860192060470581,0.4253314733505249
1763367251249288000,3.799287841796875,0.29135772585868835,0.7357853651046753,0.5635074377059937
1763367251259315000,3.80931494140625,0.219535231590271,0.6371549367904663,0.7064973711967468
1763367251269342000,3.819342041015625,0.14519335329532623,0.4779210388660431,0.8821845054626465
1763367251279369000,3.829368896484375,0.07826334983110428,0.29691335558891296,1.0732033252716064
1763367251289395700,3.839395751953125,0.02801002934575081,0.19631031155586243,1.255240797996521
1763367251299423000,3.849423095703125,-0.0332307331264019,0.1487284004688263,1.3854503631591797
1763367251309450000,3.859449951171875,-0.07206308841705322,0.11355789750814438,1.4267879724502563
1763367251319476700,3.869476806640625,-0.07310169190168381,0.09970778226852417,1.3549120426177979
1763367251329505000,3.879505126953125,-0.06702062487602234,0.20347359776496887,1.1469950675964355
1763367251339531800,3.88953173828125,-0.055993445217609406,0.4497522711753845,0.789332389831543
1763367251349558800,3.899558837890625,-0.05349540337920189,0.7184708714485168,0.27099254727363586
1763367251359586000,3.9095859375,-0.002891096519306302,0.8882573843002319,-0.2859779894351959
1763367251369613000,3.919613037109375,0.17168043553829193,0.8475818634033203,-0.6645146608352661
1763367251379639800,3.929639892578125,0.411731481552124,0.644965410232544,-0.8067916035652161
1763367251389666800,3.939666748046875,0.6361355781555176,0.5680988430976868,-0.8267543911933899
1763367251399694000,3.949694091796875,0.8324524760246277,0.7045848965644836,-0.7929163575172424
1763367251409720800,3.959720947265625,0.9532478451728821,0.9675931334495544,-0.6998993158340454
1763367251419748900,3.969748779296875,1.0092449188232422,1.1849395036697388,-0.5481821894645691
1763367251429776000,3.97977587890625,0.9414136409759521,1.393401861190796,-0.274814248085022
1763367251439803000,3.989802978515625,0.9108349084854126,1.319273591041565,0.04599582776427269
1763367251449830000,3.999829833984375,0.685305118560791,1.1683765649795532,0.23838019371032715
1763367251459857000,4.00985693359375,0.35278356075286865,0.975999653339386,0.15306103229522705
1763367251469884000,4.0198837890625,0.12644018232822418,0.7061327695846558,-0.1357734352350235
1763367251479911000,4.029910888671875,0.055277056992053986,0.7414364218711853,-0.27802807092666626
1763367251489937700,4.039937744140625,0.08098268508911133,0.9143053889274597,-0.18764036893844604
1763367251499966000,4.049966064453125,0.02500864677131176,1.2379969358444214,-0.2487274706363678
1763367251509993000,4.059992919921875,-0.014933441765606403,1.6914170980453491,-0.7029839158058167
1763367251520020000,4.07002001953125,0.20313715934753418,2.0405640602111816,-1.1806904077529907
1763367251530047000,4.080046875,0.40716537833213806,1.63300621509552,-1.1840342283248901
1763367251540074000,4.090073974609375,0.5699295401573181,0.7862370014190674,-0.5588161945343018
1763367251550100700,4.100100830078125,0.6757403612136841,-0.12678968906402588,0.5284712314605713
1763367251560128000,4.1101279296875,0.6698493957519531,-0.7871987223625183,1.5865733623504639
1763367251570155000,4.120155029296875,0.52886563539505,-1.406553864479065,2.1123602390289307
1763367251580181800,4.130181640625,0.13155816495418549,-1.966331124305725,1.5935695171356201
1763367251590210000,4.1402099609375,-0.1354714035987854,-2.556804895401001,1.1916605234146118
1763367251600236800,4.15023681640625,-0.41031956672668457,-3.214041233062744,1.805729627609253
1763367251610263800,4.160263916015625,-0.577957034111023,-3.178537130355835,2.3896820545196533
1763367251620291000,4.170291015625,-0.4862704575061798,-2.4494636058807373,2.088468074798584
1763367251630317800,4.18031787109375,-0.42665931582450867,-1.2897366285324097,1.3512715101242065
1763367251640344800,4.1903447265625,-0.4325518310070038,-0.12644228339195251,0.734511137008667
1763367251650371800,4.200371826171875,-0.38604292273521423,0.3400987684726715,0.5242820382118225
1763367251660398800,4.21039892578125,-0.37746143341064453,-0.020926445722579956,0.6449001431465149
1763367251670425900,4.22042578125,-0.41572892665863037,-0.6210322380065918,0.8606366515159607
1763367251680454000,4.230453857421875,-0.44395795464515686,-1.0436123609542847,1.0606153011322021
1763367251690481000,4.24048095703125,-0.44754523038864136,-1.1434452533721924,1.3223464488983154
1763367251700508000,4.2505078125,-0.39979156851768494,-1.0496535301208496,1.618707299232483
1763367251710535000,4.260534912109375,-0.30568957328796387,-0.8497002124786377,1.933906078338623
1763367251720562000,4.27056201171875,-0.14751659333705902,-0.7208191752433777,2.1712281703948975
1763367251730589000,4.2805888671875,0.0072474172338843346,-0.7801416516304016,2.189903974533081
1763367251740616000,4.290615966796875,0.03504670038819313,-0.8607051968574524,2.0154855251312256
1763367251750643000,4.300642822265625,-0.05197182297706604,-0.8801385164260864,1.7235299348831177
1763367251760671000,4.3106708984375,-0.23507827520370483,-0.8049823641777039,1.4084938764572144
1763367251770697700,4.32069775390625,-0.4476430118083954,-0.5992798209190369,1.0844314098358154
1763367251780725000,4.33072509765625,-0.6306867599487305,-0.18565689027309418,0.7788699865341187
1763367251790752000,4.340751953125,-0.6606854200363159,0.3451947271823883,0.541469156742096
1763367251800778800,4.35077880859375,-0.5711725950241089,0.8451255559921265,0.41324034333229065
1763367251810805800,4.3608056640625,-0.4625973403453827,1.2022758722305298,0.4114070236682892
1763367251820833000,4.3708330078125,-0.3849014639854431,1.3106436729431152,0.5592018365859985
1763367251830859800,4.38085986328125,-0.2934810519218445,1.1353610754013062,0.7691904902458191
1763367251840886800,4.39088671875,-0.2092670053243637,0.7849371433258057,0.9493898749351501
1763367251850915000,4.4009150390625,-0.14338600635528564,0.4541967809200287,1.0743906497955322
1763367251860941800,4.41094189453125,-0.08382517099380493,0.2649771571159363,1.1234455108642578
1763367251870968800,4.42096875,-0.03131189942359924,0.19746124744415283,1.1056673526763916
1763367251880996000,4.43099609375,0.06623463332653046,0.2090662270784378,1.0746593475341797
1763367251891022800,4.44102294921875,0.14435739815235138,0.16743996739387512,1.042582631111145
1763367251901049900,4.4510498046875,0.16793683171272278,0.04446514695882797,1.031042456626892
1763367251911076900,4.461076904296875,0.1473386138677597,-0.13063129782676697,1.049573540687561
1763367251921104000,4.471103759765625,0.12311571091413498,-0.3406922519207001,1.075851559638977
1763367251931131000,4.481130859375,0.08091792464256287,-0.5472920536994934,1.0843733549118042
1763367251941159000,4.491158935546875,0.002706915372982621,-0.6847537159919739,1.090067982673645
1763367251951186000,4.50118603515625,-0.0911540687084198,-0.7420076727867126,1.0853853225708008
1763367251961213000,4.511212890625,-0.17400291562080383,-0.7722535133361816,1.0141627788543701
1763367251971239700,4.52123974609375,-0.2532772421836853,-0.7794315814971924,0.8752368688583374
1763367251981267000,4.531266845703125,-0.35023248195648193,-0.7481416463851929,0.7308868169784546
1763367251991294000,4.5412939453125,-0.4503178000450134,-0.6628890037536621,0.6226338744163513
1763367252001321000,4.551321044921875,-0.5382992029190063,-0.5562267899513245,0.5599772334098816
1763367252011348000,4.561347900390625,-0.5810703635215759,-0.394072026014328,0.5843851566314697
1763367252021376000,4.5713759765625,-0.6273001432418823,-0.0894288420677185,0.756230354309082
1763367252031402800,4.58140283203125,-0.6254729628562927,0.323198139667511,1.030063509941101
1763367252041430000,4.591429931640625,-0.5058212280273438,0.6847520470619202,1.2530430555343628
1763367252051457000,4.60145703125,-0.3027512729167938,0.8245077729225159,1.3794281482696533
1763367252061483800,4.61148388671875,-0.09508620947599411,0.6673252582550049,1.4333717823028564
1763367252071510800,4.6215107421875,0.02106410078704357,0.20605672895908356,1.3906536102294922
1763367252081538000,4.6315380859375,0.11433157324790955,-0.28238189220428467,1.166672706604004
1763367252091564800,4.641564697265625,0.24682117998600006,-0.6093964576721191,0.773357093334198
1763367252101591800,4.651591796875,0.34604352712631226,-0.7340143918991089,0.4283429682254791
1763367252111619800,4.661619873046875,0.4700048863887787,-0.6922242641448975,0.2469039410352707
1763367252121646800,4.671646728515625,0.47658148407936096,-0.7817636132240295,0.1577417105436325
1763367252131673900,4.681673828125,0.4716937839984894,-1.1031979322433472,0.00928859505802393
1763367252141700900,4.691700927734375,0.5707789659500122,-1.4861201047897339,-0.20347626507282257
1763367252151727900,4.701727783203125,0.5960611701011658,-1.6873046159744263,-0.3938555419445038
1763367252161755000,4.7117548828125,0.5459853410720825,-1.5471330881118774,-0.5652972459793091
1763367252171782100,4.7217822265625,0.5107722282409668,-1.1245360374450684,-0.7236440181732178
1763367252181809000,4.731808837890625,0.5665323734283447,-0.5488174557685852,-0.921541690826416
1763367252191837000,4.7418369140625,0.5729143619537354,-0.03606415167450905,-1.108510136604309
1763367252201864000,4.751864013671875,0.5853308439254761,0.42573970556259155,-1.2712972164154053
1763367252211891000,4.761890869140625,0.6083882451057434,0.8178763389587402,-1.3258811235427856
1763367252221918000,4.77191796875,0.5698632001876831,1.1077789068222046,-1.2360007762908936
1763367252231944700,4.78194482421875,0.5650641918182373,1.0634548664093018,-1.1295297145843506
1763367252241972000,4.791971923828125,0.5144887566566467,0.770646333694458,-1.0517092943191528
1763367252251999000,4.8019990234375,0.38413047790527344,0.5205979347229004,-1.074390172958374
1763367252262025700,4.812025634765625,0.17304301261901855,0.5502672791481018,-1.3074191808700562
1763367252272053000,4.822052978515625,-0.1575431525707245,0.8357946872711182,-2.004460573196411
1763367252282080800,4.832080810546875,-0.5521885752677917,0.7974992394447327,-2.9081501960754395
1763367252292107800,4.842107666015625,-0.7607135772705078,0.25242820382118225,-3.397209644317627
1763367252302135000,4.852135009765625,-0.7463907599449158,-0.4958200752735138,-3.4418554306030273
1763367252312162000,4.862162109375,-0.6213998198509216,-1.1103044748306274,-3.200449228286743
1763367252322188800,4.872188720703125,-0.4516068398952484,-1.4052249193191528,-2.8229236602783203
1763367252332215800,4.8822158203125,-0.3438316285610199,-1.493836522102356,-2.461712121963501
1763367252342243000,4.8922431640625,-0.27999964356422424,-1.4284753799438477,-2.2662980556488037
1763367252352269800,4.902269775390625,-0.284387469291687,-1.0883455276489258,-2.251347541809082
1763367252362298000,4.912298095703125,-0.36916863918304443,-0.582084596157074,-2.299166679382324
1763367252372324900,4.922324951171875,-0.4511551260948181,-0.061568424105644226,-2.343505382537842
1763367252382352000,4.932351806640625,-0.4655434191226959,0.3699166476726532,-2.3027312755584717
1763367252392379000,4.94237890625,-0.4048188328742981,0.7134292721748352,-2.1462535858154297
1763367252402406000,4.952406005859375,-0.30262133479118347,0.9799619913101196,-1.9673714637756348
1763367252412433000,4.962432861328125,-0.14045450091362,0.9021193981170654,-1.8827754259109497
1763367252422460200,4.972460205078125,0.030748607590794563,0.5446789264678955,-1.878994107246399
1763367252432487000,4.98248681640625,0.10554375499486923,0.17214125394821167,-1.8919641971588135
1763367252442514000,4.992513916015625,0.1637052744626999,-0.02879159152507782,-1.9096908569335938
1763367252452542000,5.0025419921875,0.1683892458677292,-0.043635785579681396,-1.8985064029693604
1763367252462569000,5.01256884765625,0.1855086237192154,0.1856248378753662,-1.8356107473373413
1763367252472596000,5.022595947265625,0.2880568504333496,0.6986338496208191,-1.6782820224761963
1763367252482623000,5.032623046875,0.3538368344306946,1.171815037727356,-1.5931644439697266
1763367252492650000,5.04264990234375,0.39383751153945923,1.359262466430664,-1.6126724481582642
1763367252502677000,5.052677001953125,0.41087621450424194,1.3150943517684937,-1.5993304252624512
1763367252512704000,5.0627041015625,0.45605993270874023,1.2249507904052734,-1.4891027212142944
1763367252522731000,5.07273095703125,0.5046577453613281,1.1496002674102783,-1.3134270906448364
1763367252532758000,5.082758056640625,0.5582669377326965,1.0752911567687988,-1.130393385887146
1763367252542785800,5.092785888671875,0.592678964138031,0.955406129360199,-0.9524216055870056
1763367252552813000,5.10281298828125,0.6230379343032837,0.851475179195404,-0.7902822494506836
1763367252562840000,5.112840087890625,0.6613081693649292,0.7493274807929993,-0.6247824430465698
1763367252572866800,5.12286669921875,0.6813095808029175,0.6091631650924683,-0.46442922949790955
1763367252582894000,5.13289404296875,0.6912581324577332,0.5209907293319702,-0.30631938576698303
1763367252592921000,5.142921142578125,0.679175615310669,0.5217326879501343,-0.15324461460113525
1763367252602947800,5.15294775390625,0.651215672492981,0.5098447799682617,0.0002230300597148016
1763367252612974800,5.162974853515625,0.6070297956466675,0.5177807211875916,0.180540069937706
1763367252623002000,5.173002197265625,0.5515932440757751,0.4983541667461395,0.34347033500671387
1763367252633030000,5.18302978515625,0.48544061183929443,0.47133690118789673,0.5227698087692261
1763367252643057000,5.193056884765625,0.4322870671749115,0.47695133090019226,0.7362062335014343
1763367252653084200,5.203084228515625,0.3587569296360016,0.49078860878944397,0.9560826420783997
1763367252663111000,5.21311083984375,0.30359333753585815,0.5132729411125183,1.1531367301940918
1763367252673138000,5.223137939453125,0.27424851059913635,0.34530848264694214,1.3268390893936157
1763367252683165200,5.233165283203125,0.19915850460529327,0.12744121253490448,1.4988633394241333
1763367252693192000,5.24319189453125,0.14421217143535614,-0.018644103780388832,1.629114031791687
1763367252703219000,5.253218994140625,0.11308266222476959,-0.07109250873327255,1.6971192359924316
1763367252713246000,5.263245849609375,0.07716167718172073,0.029557133093476295,1.7251578569412231
1763367252723274000,5.27327392578125,0.04411311820149422,0.1878233700990677,1.6845901012420654
1763367252733301000,5.283301025390625,0.05695967376232147,0.4159982204437256,1.5170756578445435
1763367252743328000,5.293327880859375,0.1392921358346939,0.4897186756134033,1.152917504310608
1763367252753355000,5.30335498046875,0.26188889145851135,0.4852733314037323,0.640760600566864
1763367252763382000,5.313382080078125,0.32072892785072327,0.6279763579368591,0.02685798518359661
1763367252773408800,5.32340869140625,0.3419466018676758,0.891207218170166,-0.5727394223213196
1763367252783436000,5.33343603515625,0.4424940347671509,1.0791583061218262,-0.9373965859413147
1763367252793463000,5.343463134765625,0.6001467704772949,1.0951130390167236,-1.0252074003219604
1763367252803490000,5.353489990234375,0.7808243632316589,1.0172441005706787,-0.9843112230300903
1763367252813518000,5.36351806640625,0.927110493183136,0.9541444778442383,-0.8878480792045593
1763367252823545000,5.373545166015625,0.9819276928901672,0.9486244320869446,-0.7505537271499634
1763367252833571800,5.38357177734375,0.9421853423118591,0.9115692377090454,-0.5466216206550598
1763367252843599000,5.39359912109375,0.7792990207672119,0.855807363986969,-0.22109457850456238
1763367252853626000,5.403626220703125,0.5346291065216064,0.6631894707679749,0.13953976333141327
1763367252863652900,5.41365283203125,0.1579747498035431,0.5400899648666382,0.31765371561050415
1763367252873680000,5.423679931640625,-0.23006805777549744,0.6071709990501404,0.16360287368297577
1763367252883707100,5.43370703125,-0.29055872559547424,0.8971133232116699,-0.11501429975032806
1763367252893734000,5.44373388671875,-0.1777443140745163,1.3770184516906738,-0.12016777694225311
1763367252903762200,5.45376220703125,-0.1341414600610733,1.8736897706985474,-0.03614640608429909
1763367252913789000,5.463788818359375,-0.15047356486320496,2.010183095932007,-0.16557709872722626
1763367252923816000,5.47381591796875,-0.16193285584449768,2.0525412559509277,-0.5185956358909607
1763367252933843000,5.483843017578125,-0.06859119236469269,2.005152702331543,-0.942150890827179
1763367252943870000,5.493869873046875,0.20229847729206085,1.319937825202942,-1.0735288858413696
1763367252953897000,5.50389697265625,0.5701079368591309,0.27794384956359863,-0.6837506890296936
1763367252963924000,5.513924072265625,0.9115424156188965,-0.6987643837928772,0.30300426483154297
1763367252973951000,5.523950927734375,1.0186808109283447,-1.288403868675232,1.46695876121521
1763367252983978000,5.53397802734375,0.8842628598213196,-1.7440133094787598,2.2021610736846924
1763367252994006000,5.544006103515625,0.4971494674682617,-2.169461250305176,1.8932708501815796
1763367253004033000,5.554032958984375,0.009286755695939064,-2.45308518409729,1.1239373683929443
1763367253014060000,5.56406005859375,-0.4596697986125946,-2.9062609672546387,1.4187804460525513
1763367253024087000,5.574087158203125,-0.8391658663749695,-2.842376232147217,2.063296318054199
1763367253034113800,5.58411376953125,-0.7804722189903259,-2.312957763671875,2.068643569946289
1763367253044141000,5.59414111328125,-0.674575686454773,-1.4884133338928223,1.5656460523605347
1763367253054168000,5.60416796875,-0.5620768070220947,-0.6189088821411133,1.065635085105896
1763367253064194800,5.61419482421875,-0.4391143023967743,0.027941808104515076,0.8630096316337585
1763367253074222000,5.62422216796875,-0.3962794840335846,0.1355774700641632,0.9451494812965393
1763367253084249000,5.6342490234375,-0.4460105895996094,-0.18431800603866577,1.157622218132019
1763367253094276900,5.64427685546875,-0.44371548295021057,-0.5085315108299255,1.4273442029953003
1763367253104304000,5.65430419921875,-0.33254873752593994,-0.5970454812049866,1.6986984014511108
1763367253114331000,5.664330810546875,-0.15234462916851044,-0.6355199217796326,1.9098575115203857
1763367253124358000,5.67435791015625,0.006255012936890125,-0.9349530935287476,2.060837745666504
1763367253134385000,5.684385009765625,0.09405703842639923,-1.2910627126693726,2.1517159938812256
1763367253144412200,5.694412109375,0.0808197632431984,-1.5288738012313843,2.1361498832702637
1763367253154439000,5.70443896484375,0.03246155008673668,-1.6868892908096313,2.01214599609375
1763367253164466000,5.7144658203125,-0.04102002829313278,-1.648463487625122,1.840882658958435
1763367253174493200,5.7244931640625,-0.12493222951889038,-1.4826658964157104,1.634223461151123
1763367253184520000,5.73452001953125,-0.20565064251422882,-1.2425775527954102,1.3854095935821533
1763367253194548000,5.7445478515625,-0.30982524156570435,-0.857873797416687,1.0780967473983765
1763367253204575000,5.754574951171875,-0.35790732502937317,-0.3541460633277893,0.7395098209381104
1763367253214602000,5.76460205078125,-0.3711206018924713,0.20288468897342682,0.4678247570991516
1763367253224629000,5.77462890625,-0.36190885305404663,0.7571091651916504,0.32228484749794006
1763367253234656000,5.784656005859375,-0.3319839537143707,1.1706947088241577,0.36139044165611267
1763367253244683000,5.79468310546875,-0.27262231707572937,1.242567539215088,0.5553579330444336
1763367253254710000,5.8047099609375,-0.19344305992126465,0.9524401426315308,0.7732148766517639
1763367253264736800,5.81473681640625,-0.1372968703508377,0.463724821805954,0.9382624626159668
1763367253274764000,5.824763916015625,-0.08773223310709,-0.09432805329561234,0.9981646537780762
1763367253284792000,5.8347919921875,0.005983305163681507,-0.5561254024505615,1.002930760383606
1763367253294818800,5.84481884765625,0.10828597098588943,-0.8339727520942688,0.976185142993927
1763367253304846000,5.85484619140625,0.15428844094276428,-0.9715718030929565,0.9606326818466187
1763367253314873000,5.864873046875,0.19073672592639923,-1.093531608581543,0.9232062101364136
1763367253324899800,5.87489990234375,0.21736003458499908,-1.2288084030151367,0.9000009298324585
1763367253334927000,5.884927001953125,0.19606485962867737,-1.2992106676101685,0.9008139967918396
1763367253344954000,5.8949541015625,0.13571740686893463,-1.283691167831421,0.8719592690467834
1763367253354980900,5.90498095703125,0.04803096875548363,-1.1312757730484009,0.8113313317298889
1763367253365008000,5.9150078125,-0.01959148608148098,-0.9638912081718445,0.7175185680389404
1763367253375035100,5.92503515625,-0.13955703377723694,-0.8085642457008362,0.713444173336029
1763367253385063000,5.93506298828125,-0.3051315248012543,-0.6352785229682922,0.8132209181785583
1763367253395090000,5.94508984375,-0.3864426016807556,-0.42707204818725586,0.9796975255012512
1763367253405117000,5.955116943359375,-0.41594505310058594,-0.2627243995666504,1.1034201383590698
1763367253415144000,5.96514404296875,-0.4589356780052185,-0.14648191630840302,1.2090232372283936
1763367253425171700,5.975171630859375,-0.5014122128486633,-0.018032744526863098,1.3445125818252563
1763367253435198500,5.985198486328125,-0.4972648322582245,0.04970049485564232,1.5124722719192505
1763367253445225700,5.995225830078125,-0.3975021541118622,0.020158465951681137,1.7145570516586304
1763367253455252700,6.005252685546875,-0.23394863307476044,-0.12416914850473404,1.861793875694275
1763367253465279500,6.015279541015625,-0.08738669008016586,-0.395120233297348,1.8419337272644043
1763367253475306500,6.025306396484375,0.0023003253154456615,-0.7500812411308289,1.5932154655456543
1763367253485334500,6.03533447265625,0.05805357173085213,-1.0055638551712036,1.0699855089187622
1763367253495361500,6.045361572265625,0.05277571827173233,-1.1180349588394165,0.4503893256187439
1763367253505388500,6.055388427734375,0.04001886397600174,-1.1565263271331787,-0.06212535500526428
1763367253515415600,6.06541552734375,0.07321356981992722,-1.1901543140411377,-0.35766884684562683
1763367253525442600,6.075442626953125,0.12238667905330658,-1.206586241722107,-0.48437127470970154
1763367253535469600,6.085469482421875,0.18809297680854797,-1.1641432046890259,-0.5022836923599243
1763367253545496600,6.09549658203125,0.21377946436405182,-1.0882692337036133,-0.4582551121711731
1763367253555523600,6.105523681640625,0.20952773094177246,-1.0017764568328857,-0.41260266304016113
1763367253565550600,6.115550537109375,0.20586368441581726,-0.8769847750663757,-0.3590395152568817
1763367253575578600,6.12557861328125,0.19833813607692719,-0.683452844619751,-0.3702074885368347
1763367253585605600,6.135605712890625,0.2768339216709137,-0.36024224758148193,-0.41500404477119446
1763367253595632600,6.145632568359375,0.3556176722049713,0.03809235617518425,-0.4683023989200592
1763367253605659600,6.15565966796875,0.37219560146331787,0.5302013754844666,-0.6232951879501343
1763367253615686700,6.165686767578125,0.34984368085861206,0.9805387258529663,-0.8599966764450073
1763367253625713700,6.175713623046875,0.30819597840309143,1.3435012102127075,-1.0767072439193726
1763367253635740400,6.185740478515625,0.3525855541229248,1.5983976125717163,-1.193556308746338
1763367253645767700,6.195767578125,0.46283450722694397,1.6461403369903564,-1.2024587392807007
1763367253655794700,6.205794677734375,0.6094772219657898,1.3615179061889648,-1.2620347738265991
1763367253665821400,6.215821533203125,0.6392258405685425,0.73681640625,-1.4096697568893433
1763367253675849700,6.225849609375,0.5759938359260559,0.2638123631477356,-1.6422189474105835
1763367253685876500,6.23587646484375,0.3604218661785126,0.2313397079706192,-2.06613826751709
1763367253695903500,6.245903564453125,-0.11264339834451675,0.40097641944885254,-2.7202327251434326
1763367253705930800,6.2559306640625,-0.6612147688865662,0.34944650530815125,-3.2583696842193604
1763367253715957800,6.265957763671875,-0.8700569272041321,-0.09773285686969757,-3.4875593185424805
1763367253725984500,6.275984619140625,-0.701030969619751,-0.7636687159538269,-3.489588737487793
1763367253736011500,6.286011474609375,-0.2936789393424988,-1.4322292804718018,-3.306173801422119
1763367253746038800,6.296038818359375,-0.08158978074789047,-1.940998911857605,-2.96155047416687
1763367253756065500,6.3060654296875,-0.15451672673225403,-2.214198589324951,-2.6485402584075928
1763367253766092500,6.316092529296875,-0.2012571543455124,-1.9473812580108643,-2.4529385566711426
1763367253776120600,6.32612060546875,-0.1814030110836029,-1.2001816034317017,-2.3509461879730225
1763367253786147600,6.336147705078125,-0.1932874321937561,-0.2251284271478653,-2.2995786666870117
1763367253796174600,6.346174560546875,-0.20862030982971191,0.6850377917289734,-2.177474021911621
1763367253806201600,6.35620166015625,-0.18987703323364258,1.4348251819610596,-1.9946403503417969
1763367253816228600,6.366228515625,-0.13140013813972473,1.9717490673065186,-1.8063583374023438
1763367253826255600,6.376255615234375,-0.10575278103351593,2.075018882751465,-1.7134649753570557
1763367253836282400,6.386282470703125,-0.07667851448059082,1.6077054738998413,-1.9047675132751465
1763367253846309600,6.3963095703125,0.019787250086665154,0.7840471863746643,-2.1629087924957275
1763367253856336600,6.406336669921875,0.15782873332500458,0.15488147735595703,-2.2025399208068848
1763367253866363600,6.41636376953125,0.4828934967517853,0.2979619801044464,-1.961395502090454
1763367253876391700,6.4263916015625,0.7835103273391724,0.5882422924041748,-1.7890487909317017
1763367253886418700,6.436418701171875,0.8936758041381836,0.7937277555465698,-1.844569444656372
1763367253896445400,6.446445556640625,0.9397783279418945,1.0617671012878418,-1.8129019737243652
1763367253906472700,6.45647265625,0.9725716710090637,1.270025372505188,-1.6588873863220215
1763367253916499700,6.466499755859375,0.9800996780395508,1.3372288942337036,-1.5056602954864502
1763367253926526500,6.4765263671875,0.9276824593544006,1.5121488571166992,-1.3728023767471313
1763367253936553700,6.4865537109375,0.8771130442619324,1.7225759029388428,-1.2707459926605225
1763367253946580700,6.496580810546875,0.819331169128418,1.9059432744979858,-1.1516151428222656
1763367253956607500,6.506607421875,0.7704198360443115,2.0018038749694824,-0.9905692934989929
1763367253966634500,6.516634521484375,0.7203207015991211,1.996766209602356,-0.8247469067573547
1763367253976662500,6.52666259765625,0.6708780527114868,1.9038625955581665,-0.6585864424705505
1763367253986689500,6.536689453125,0.6121946573257446,1.8195897340774536,-0.4761057198047638
1763367253996716500,6.546716552734375,0.6003499627113342,1.6206591129302979,-0.2771867513656616
1763367254006743600,6.55674365234375,0.5674735307693481,1.353057622909546,-0.05601772665977478
1763367254016770600,6.5667705078125,0.52774578332901,1.1510512828826904,0.16871552169322968
1763367254026797600,6.576797607421875,0.4768606424331665,0.9928528666496277,0.4009815752506256
1763367254036824600,6.586824462890625,0.37885844707489014,0.8473159074783325,0.6355765461921692
1763367254046851600,6.5968515625,0.25863704085350037,0.665503203868866,0.8760168552398682
1763367254056878600,6.606878662109375,0.15111565589904785,0.5093548893928528,1.100237250328064
1763367254066905600,6.616905517578125,0.05600367486476898,0.3993692100048065,1.2883541584014893
1763367254076933600,6.62693359375,-0.042480822652578354,0.3050379157066345,1.442160964012146
1763367254086960600,6.636960693359375,-0.110781729221344,0.1973775327205658,1.5342206954956055
1763367254096987600,6.646987548828125,-0.16087445616722107,0.08126690238714218,1.5702093839645386
1763367254107014700,6.6570146484375,-0.1977955549955368,-0.0063268085941672325,1.5082794427871704
1763367254117041700,6.667041748046875,-0.1976938247680664,-0.026242725551128387,1.2851275205612183
1763367254127068400,6.677068359375,-0.15187492966651917,0.061311982572078705,0.9018301963806152
1763367254137095700,6.687095703125,-0.12186988443136215,0.17859093844890594,0.40792760252952576
1763367254147122700,6.697122802734375,-0.10935348272323608,0.34322500228881836,-0.13086973130702972
1763367254157149400,6.7071494140625,0.031733863055706024,0.5512045621871948,-0.5625540018081665
1763367254167176700,6.7171767578125,0.2992632985115051,0.6444886326789856,-0.7764202356338501
1763367254177204700,6.727204833984375,0.5405145287513733,0.7122599482536316,-0.8800435662269592
1763367254187231500,6.7372314453125,0.7192667126655579,0.8497216105461121,-0.8960509896278381
1763367254197258800,6.7472587890625,0.8235396146774292,1.0137603282928467,-0.8506348133087158
1763367254207285800,6.75728564453125,0.8876785635948181,1.0564591884613037,-0.7687776684761047
1763367254217312500,6.7673125,0.9163541197776794,0.9886060357093811,-0.5545361638069153
1763367254227339500,6.777339599609375,0.8831159472465515,1.0257538557052612,-0.1601535677909851
1763367254237366800,6.78736669921875,0.722966194152832,1.1109105348587036,0.11827114224433899
1763367254247393500,6.7973935546875,0.49824443459510803,1.2012709379196167,0.12499647587537766
1763367254257420500,6.807420654296875,0.4345996677875519,1.3281242847442627,0.0024433950893580914
1763367254267447800,6.81744775390625,0.46310004591941833,1.6421077251434326,-0.05028621479868889
1763367254277475600,6.8274755859375,0.36880284547805786,1.9309799671173096,0.002270736964419484
1763367254287502600,6.837502685546875,0.16781195998191833,1.8688966035842896,-0.1336199939250946
1763367254297529600,6.847529541015625,0.06318328529596329,1.9525084495544434,-0.6849590539932251
1763367254307556600,6.857556640625,0.1427740454673767,2.1334011554718018,-1.4723092317581177
1763367254317583600,6.86758349609375,0.1627030074596405,1.829086422920227,-1.2375723123550415
1763367254327610400,6.8776103515625,0.3541911244392395,0.9703460335731506,-0.14121773838996887
1763367254337637600,6.8876376953125,0.789080798625946,0.051933638751506805,1.0853228569030762
1763367254347664600,6.89766455078125,0.9622107744216919,-0.5913397669792175,1.9165565967559814
1763367254357691600,6.907691650390625,0.7028803825378418,-1.3592162132263184,1.8117780685424805
1763367254367718700,6.91771875,0.20645549893379211,-1.9442123174667358,1.1999033689498901
1763367254377746700,6.92774658203125,-0.1105930358171463,-2.5929195880889893,1.6351754665374756
1763367254387773400,6.9377734375,-0.5289404988288879,-3.3962154388427734,2.488173007965088
1763367254397800700,6.94780078125,-0.8783740997314453,-3.5494418144226074,2.7804477214813232
1763367254407827700,6.95782763671875,-0.8259686231613159,-2.749084711074829,2.334534168243408
1763367254417854500,6.9678544921875,-0.6038010716438293,-1.2367870807647705,1.5143150091171265
1763367254427881000,6.977880859375,-0.47427427768707275,0.09837643802165985,0.7757471799850464
1763367254437908200,6.987908203125,-0.5085736513137817,0.763293981552124,0.4108683168888092
1763367254447935200,6.997935302734375,-0.5694757699966431,0.597161591053009,0.48784080147743225
1763367254457962000,7.0079619140625,-0.6071155667304993,0.10991204530000687,0.8126609325408936
1763367254467989200,7.0179892578125,-0.5614883303642273,-0.23763735592365265,1.160603642463684
1763367254478017000,7.02801708984375,-0.4894801676273346,-0.34041327238082886,1.4487049579620361
1763367254488044000,7.0380439453125,-0.3615218698978424,-0.248551145195961,1.6867563724517822
1763367254498071300,7.0480712890625,-0.20435115694999695,-0.0829177051782608,1.8010501861572266
1763367254508098000,7.05809814453125,-0.061243686825037,-0.19701211154460907,1.7782092094421387
1763367254518125000,7.068125,-0.019744446501135826,-0.3896033763885498,1.6193794012069702
1763367254528152300,7.07815234375,-0.0019711016211658716,-0.6493039727210999,1.4295061826705933
1763367254538179000,7.088178955078125,-0.003817737801000476,-0.8721641898155212,1.279639720916748
1763367254548206000,7.0982060546875,-0.057638201862573624,-0.9637649655342102,1.173248529434204
1763367254558233000,7.108233154296875,-0.18428589403629303,-0.891677737236023,1.0672528743743896
1763367254568261000,7.11826123046875,-0.34457555413246155,-0.6965416073799133,0.934943437576294
1763367254578288000,7.1282880859375,-0.4630015194416046,-0.35671186447143555,0.7791640162467957
1763367254588315100,7.138315185546875,-0.4975946247577667,0.056475915014743805,0.6558548212051392
1763367254598342100,7.148342041015625,-0.4915843904018402,0.4913613200187683,0.6366225481033325
1763367254608369200,7.158369140625,-0.42825809121131897,0.8273429870605469,0.7309125065803528
1763367254618396200,7.168396240234375,-0.3244563043117523,0.9707680344581604,0.8810300827026367
1763367254628423200,7.178423095703125,-0.18215306103229523,0.951447069644928,1.0480339527130127
1763367254638450200,7.1884501953125,-0.03755434602499008,0.7788766026496887,1.1999976634979248
1763367254648477200,7.198477294921875,0.04988975077867508,0.5077966451644897,1.301295518875122
1763367254658504000,7.20850390625,0.10423421114683151,0.2646697461605072,1.3435721397399902
1763367254668532200,7.2185322265625,0.1187344342470169,0.14435935020446777,1.336255431175232
1763367254678559000,7.22855908203125,0.12425383925437927,0.1239267960190773,1.2539608478546143
1763367254688586000,7.2385859375,0.12725409865379333,0.1454581618309021,1.1174297332763672
1763367254698613200,7.24861328125,0.0932798981666565,0.1214044988155365,0.9785345196723938
1763367254708640000,7.258639892578125,0.08151140064001083,0.07044447213411331,0.8774639964103699
1763367254718667000,7.2686669921875,0.040298983454704285,-0.006573613733053207,0.8507197499275208
1763367254728694300,7.2786943359375,0.011520396918058395,-0.15130247175693512,0.8554385900497437
1763367254738721000,7.288720947265625,-0.004569090902805328,-0.3421693444252014,0.8558623194694519
1763367254748748000,7.298748046875,-0.002452945802360773,-0.5323276519775391,0.8417580723762512
1763367254758776000,7.308776123046875,0.009123016148805618,-0.6766113638877869,0.8138348460197449
1763367254768803000,7.318802978515625,0.017361992970108986,-0.8256455063819885,0.790877640247345
1763367254778830000,7.328830078125,-0.03955988213419914,-1.0121252536773682,0.803197979927063
1763367254788857300,7.338857421875,-0.14676931500434875,-1.1703770160675049,0.8213778138160706
1763367254798884000,7.348884033203125,-0.2693290710449219,-1.2231011390686035,0.8377751708030701
1763367254808911000,7.3589111328125,-0.40386125445365906,-1.0418657064437866,0.8887719511985779
1763367254818938000,7.368938232421875,-0.4955933094024658,-0.6227680444717407,0.987776517868042
1763367254828965000,7.378965087890625,-0.5506181716918945,-0.17325858771800995,1.0949572324752808
1763367254838992100,7.3889921875,-0.5243005156517029,0.24633921682834625,1.195799708366394
1763367254849019100,7.39901904296875,-0.41514983773231506,0.5851741433143616,1.2573367357254028
1763367254859047200,7.409047119140625,-0.30105018615722656,0.7508280873298645,1.2996413707733154
1763367254869074200,7.41907421875,-0.2255583554506302,0.7147095203399658,1.3710755109786987
1763367254879101000,7.429100830078125,-0.10983308404684067,0.421987384557724,1.3916192054748535
1763367254889128200,7.439128173828125,0.004591023549437523,-0.12313494831323624,1.3471410274505615
1763367254899155200,7.4491552734375,0.15045422315597534,-0.7156848311424255,1.1895002126693726
1763367254909182000,7.459181884765625,0.2908322811126709,-1.1617379188537598,0.9618670344352722
1763367254919209000,7.469208984375,0.44569775462150574,-1.3378313779830933,0.6334561705589294
1763367254929236200,7.479236328125,0.5413296818733215,-1.3108149766921997,0.26005297899246216
1763367254939264000,7.489263916015625,0.5720210075378418,-1.1107529401779175,-0.1506597250699997
1763367254949291000,7.499291015625,0.5540369153022766,-0.7999743223190308,-0.5192261934280396
1763367254959318300,7.509318359375,0.5216451287269592,-0.41998860239982605,-0.8170552253723145
1763367254969345000,7.519344970703125,0.49506160616874695,-0.024285348132252693,-1.0771054029464722
1763367254979372000,7.5293720703125,0.4857216477394104,0.2769399881362915,-1.259711742401123
1763367254989399300,7.5393994140625,0.517724335193634,0.5603084564208984,-1.3856018781661987
1763367254999426000,7.549426025390625,0.5705942511558533,0.8904168605804443,-1.3835123777389526
1763367255009453000,7.559453125,0.6485252976417542,0.9681956171989441,-1.1551345586776733
1763367255019480000,7.56947998046875,0.7319725155830383,0.7386138439178467,-0.8880200982093811
1763367255029507000,7.579507080078125,0.7476089596748352,0.4344450533390045,-0.7551885843276978
1763367255039535000,7.58953515625,0.6720441579818726,0.22233492136001587,-0.7274807691574097
1763367255049562000,7.59956201171875,0.5034547448158264,0.2064511477947235,-0.8292869329452515
1763367255059589000,7.609589111328125,0.286549836397171,0.512037992477417,-1.2179605960845947
1763367255069616000,7.6196162109375,-0.05510738119482994,0.9763844609260559,-1.977973222732544
1763367255079643100,7.62964306640625,-0.4675937294960022,1.1160707473754883,-2.943364381790161
1763367255089670100,7.639670166015625,-0.7220883965492249,0.7040971517562866,-3.538792848587036
1763367255099697200,7.649697265625,-0.8099948167800903,0.06020896136760712,-3.6772665977478027
1763367255109724200,7.65972412109375,-0.7165972590446472,-0.510004460811615,-3.428184986114502
1763367255119751200,7.669751220703125,-0.5732845664024353,-0.9423574209213257,-2.9985287189483643
1763367255129779200,7.679779296875,-0.461040735244751,-1.29422926902771,-2.535308599472046
1763367255139806000,7.689805908203125,-0.3913785517215729,-1.514999270439148,-2.213258743286133
1763367255149833200,7.699833251953125,-0.37068110704421997,-1.4233170747756958,-2.0936975479125977
1763367255159860200,7.709860107421875,-0.37033411860466003,-0.9911904335021973,-2.15036678314209
1763367255169887000,7.719886962890625,-0.44119319319725037,-0.34874680638313293,-2.3537673950195312
1763367255179914000,7.7299140625,-0.550567626953125,0.5863324999809265,-2.5733249187469482
1763367255189941200,7.739941162109375,-0.5550746917724609,1.5189340114593506,-2.6025686264038086
1763367255199968000,7.749968017578125,-0.46904048323631287,2.092421770095825,-2.401045322418213
1763367255209995000,7.7599951171875,-0.4135441184043884,2.118312358856201,-2.199228286743164
1763367255220023000,7.77002294921875,-0.33508312702178955,1.7974531650543213,-2.180760383605957
1763367255230050000,7.780050048828125,-0.13120177388191223,1.3339715003967285,-2.259909152984619
1763367255240077000,7.7900771484375,0.15020832419395447,0.7887222766876221,-2.2085065841674805
1763367255250104000,7.80010400390625,0.4158812463283539,0.3357710838317871,-2.0782508850097656
1763367255260131000,7.810131103515625,0.5816036462783813,0.18746069073677063,-1.9353798627853394
1763367255270158000,7.820157958984375,0.7079541683197021,0.11976741999387741,-1.7521206140518188
1763367255280185300,7.830185302734375,0.8347427248954773,0.12225481122732162,-1.5603426694869995
1763367255290212000,7.840212158203125,0.8344303965568542,0.1202160194516182,-1.4623438119888306
1763367255300239000,7.850239013671875,0.7680000066757202,0.3264157772064209,-1.4467566013336182
1763367255310267100,7.86026708984375,0.6496890187263489,0.6719769835472107,-1.4766647815704346
1763367255320294100,7.870294189453125,0.5395289063453674,1.2884976863861084,-1.287685513496399
1763367255330321200,7.880321044921875,0.5962353348731995,1.8350577354431152,-1.1587419509887695
1763367255340348000,7.890347900390625,0.6526927947998047,1.8136427402496338,-1.1332237720489502
1763367255350375200,7.900375244140625,0.6999819278717041,1.5881226062774658,-0.9897890090942383
1763367255360402200,7.910402099609375,0.7011215090751648,1.3196637630462646,-0.755195140838623
1763367255370429000,7.920428955078125,0.6407353281974792,1.2030675411224365,-0.5518646836280823
1763367255380456200,7.930456298828125,0.5981572270393372,1.1922365427017212,-0.3967456817626953
1763367255390483200,7.940483154296875,0.5634370446205139,1.086295485496521,-0.240961492061615
1763367255400511000,7.950510986328125,0.5226869583129883,0.8649470806121826,-0.030122490599751472
1763367255410538200,7.960538330078125,0.47944560647010803,0.6725752353668213,0.2248421609401703
1763367255420565200,7.970565185546875,0.41951701045036316,0.5666701197624207,0.5025651454925537
1763367255430592000,7.980592041015625,0.3437844514846802,0.5370699167251587,0.75685054063797
1763367255440619000,7.990618896484375,0.27249589562416077,0.5603252053260803,0.996619701385498
1763367255450646300,8.000646240234374,0.22697670757770538,0.6447357535362244,1.2323564291000366
1763367255460673000,8.010673095703124,0.16834242641925812,0.6812412738800049,1.4558500051498413
1763367255470700000,8.020699951171874,0.07765357941389084,0.6017700433731079,1.6699317693710327
1763367255480727300,8.030727294921874,0.011904925107955933,0.3918597102165222,1.8443567752838135
1763367255490755000,8.040755126953124,-0.03869891166687012,0.15555429458618164,1.9694539308547974
1763367255500782000,8.050781982421874,-0.05256093293428421,-0.17027601599693298,1.9643765687942505
1763367255510809000,8.06080908203125,-0.043530747294425964,-0.3277547061443329,1.7212775945663452
1763367255520836000,8.070836181640624,-0.09500885009765625,-0.13604968786239624,1.2683937549591064
1763367255530863000,8.080863037109374,-0.13763326406478882,0.07902932167053223,0.6773331761360168
1763367255540890000,8.09089013671875,-0.12788504362106323,0.3709719479084015,-0.03622700646519661
1763367255550917000,8.100917236328126,0.07045356184244156,0.47921302914619446,-0.5709649324417114
1763367255560944000,8.110944091796876,0.38831594586372375,0.34836578369140625,-0.8176586031913757
1763367255570971100,8.12097119140625,0.6503527760505676,0.3417736291885376,-0.8991079926490784
1763367255580999200,8.130999267578124,0.8342211246490479,0.5128340125083923,-0.8563061952590942
1763367255591026200,8.141026123046874,0.9617154598236084,0.7666414380073547,-0.6976330876350403
1763367255601053000,8.151052978515626,1.042389988899231,0.8562980890274048,-0.4587872326374054
1763367255611080200,8.161080078125,1.0014352798461914,0.7739948630332947,-0.16399461030960083
1763367255621107200,8.171107177734376,0.7585353255271912,0.5665175914764404,-0.0613555833697319
1763367255631134000,8.181134033203126,0.504228949546814,0.38638782501220703,-0.345319926738739
1763367255641161200,8.1911611328125,0.4394795298576355,0.573406457901001,-0.6166662573814392
1763367255651188200,8.201188232421876,0.3569723963737488,1.267151951789856,-0.39140084385871887
1763367255661215000,8.211215087890626,0.20006133615970612,1.500715732574463,-0.1769958883523941
1763367255671242000,8.221241943359376,0.002069589216262102,1.49514901638031,-0.4772639870643616
1763367255681270000,8.23127001953125,0.06017816439270973,2.0853097438812256,-1.1585516929626465
1763367255691297000,8.241297119140626,0.32493123412132263,2.7851223945617676,-1.774977445602417
1763367255701324300,8.25132421875,0.4308933615684509,2.2798900604248047,-1.5475994348526
1763367255711351000,8.26135107421875,0.6674991846084595,0.9777029156684875,-0.4575987458229065
1763367255721378000,8.2713779296875,0.941817045211792,-0.5001499056816101,0.7398849725723267
1763367255731405000,8.281405029296875,0.9928416609764099,-1.3158466815948486,1.742132306098938
1763367255741432000,8.29143212890625,0.7347502112388611,-1.9714884757995605,2.188600540161133
1763367255751459000,8.301458984375,0.2222307026386261,-2.297729730606079,1.6491950750350952
1763367255761486000,8.311486083984375,-0.2997400760650635,-2.467897653579712,1.3844188451766968
1763367255771514000,8.32151416015625,-0.6814540028572083,-2.871128797531128,1.9348121881484985
1763367255781541000,8.331541015625,-0.7098414301872253,-2.621363639831543,2.1869025230407715
1763367255791568100,8.341568115234375,-0.5269435048103333,-1.9134958982467651,1.7136625051498413
1763367255801595100,8.35159521484375,-0.4540237486362457,-0.8906980156898499,0.9484643340110779
1763367255811622100,8.3616220703125,-0.4674686789512634,-0.026107124984264374,0.51378333568573
1763367255821649200,8.371649169921875,-0.5925432443618774,0.2598963975906372,0.5298249125480652
1763367255831676000,8.381676025390625,-0.7220946550369263,0.02641528658568859,0.7194511294364929
1763367255841703200,8.391703125,-0.7559242248535156,-0.16425451636314392,0.9015636444091797
1763367255851730200,8.401730224609375,-0.6052098274230957,-0.06943012028932571,1.1373910903930664
1763367255861757000,8.4117568359375,-0.30339619517326355,-0.052841026335954666,1.4007058143615723
1763367255871785200,8.42178515625,0.00015635835006833076,-0.32106685638427734,1.6094274520874023
1763367255881812000,8.43181201171875,0.18603461980819702,-0.5696542859077454,1.7292795181274414
1763367255891839000,8.4418388671875,0.27976179122924805,-0.900667130947113,1.7398805618286133
1763367255901866200,8.4518662109375,0.3361550271511078,-1.1304265260696411,1.7295242547988892
1763367255911893200,8.461893310546875,0.32581016421318054,-1.2339448928833008,1.6951593160629272
1763367255921920000,8.471919921875,0.2329835295677185,-1.230650544166565,1.6184428930282593
1763367255931947000,8.481947021484375,0.09853290766477585,-1.1378669738769531,1.4933801889419556
1763367255941974300,8.491974365234375,-0.07337973266839981,-0.8914125561714172,1.346994161605835
1763367255952001000,8.5020009765625,-0.2655601501464844,-0.5331624150276184,1.1872011423110962
1763367255962028000,8.512028076171875,-0.40572604537010193,-0.16857755184173584,1.0652906894683838
1763367255972056000,8.52205615234375,-0.4500191807746887,0.15771915018558502,0.9818764328956604
1763367255982083000,8.5320830078125,-0.4414712190628052,0.4380549490451813,0.9500982761383057
1763367255992110000,8.542110107421875,-0.39105990529060364,0.6320586204528809,0.9379245042800903
1763367256002137000,8.55213720703125,-0.3361252546310425,0.7294429540634155,0.9299374222755432
1763367256012164000,8.5621640625,-0.2699977159500122,0.7346974611282349,0.9104921817779541
1763367256022191000,8.572191162109375,-0.16761274635791779,0.7151258587837219,0.9212830066680908
1763367256032218000,8.582218017578125,-0.059628676623106,0.6091665029525757,0.943665087223053
1763367256042245000,8.5922451171875,0.0020482679829001427,0.46394675970077515,0.9574938416481018
1763367256052272000,8.602272216796875,0.04311695322394371,0.39015626907348633,0.9729245901107788
1763367256062299100,8.612299072265625,0.0658465027809143,0.41331058740615845,0.9836920499801636
1763367256072327200,8.6223271484375,0.06336477398872375,0.4280105531215668,0.9981318712234497
1763367256082354200,8.632354248046875,0.032092075794935226,0.4143139123916626,1.0074150562286377
1763367256092381000,8.642380859375,0.010291079059243202,0.3725271224975586,1.0381633043289185
1763367256102408200,8.652408203125,-0.024571828544139862,0.27612096071243286,1.0752958059310913
1763367256112435200,8.662435302734375,-0.08485233038663864,0.12979434430599213,1.114264965057373
1763367256122462000,8.6724619140625,-0.15263696014881134,-0.03254637122154236,1.0959957838058472
1763367256132489200,8.6824892578125,-0.23344799876213074,-0.1749504953622818,1.0180670022964478
1763367256142516200,8.69251611328125,-0.29302212595939636,-0.25279924273490906,0.9038740992546082
1763367256152543000,8.70254296875,-0.3455565571784973,-0.25108736753463745,0.7969648838043213
1763367256162570000,8.712570068359375,-0.39544183015823364,-0.15574568510055542,0.7162841558456421
1763367256172598000,8.722597900390625,-0.41377976536750793,-0.0056798337027430534,0.6734846830368042
1763367256182625000,8.732625,-0.4121216833591461,0.13707812130451202,0.6879493594169617
1763367256192652300,8.74265234375,-0.4155525267124176,0.21874338388442993,0.7515319585800171
1763367256202679000,8.752678955078125,-0.4405350983142853,0.15969204902648926,0.8238620758056641
1763367256212706000,8.7627060546875,-0.44931888580322266,0.0712781473994255,0.8804773688316345
1763367256222733000,8.772733154296875,-0.4300139248371124,0.06850792467594147,1.0049713850021362
1763367256232760000,8.782760009765624,-0.34508752822875977,0.17723797261714935,1.1822314262390137
1763367256242787000,8.792787109375,-0.19567780196666718,0.3161604404449463,1.3502047061920166
1763367256252814000,8.80281396484375,-0.10108122229576111,0.19154253602027893,1.3411189317703247
1763367256262841300,8.81284130859375,-0.010966511443257332,-0.09005026519298553,1.1663250923156738
1763367256272869000,8.822869140625,0.07926416397094727,-0.2833195626735687,0.9366660118103027
1763367256282896100,8.832896240234374,0.21182486414909363,-0.3931632339954376,0.7222636938095093
1763367256292923100,8.842923095703124,0.36859071254730225,-0.4602102041244507,0.5787323117256165
1763367256302950100,8.8529501953125,0.4417416453361511,-0.5469261407852173,0.49925556778907776
1763367256312977200,8.86297705078125,0.4187661111354828,-0.6576517224311829,0.39226359128952026
1763367256323004000,8.87300390625,0.3711780905723572,-0.748049795627594,0.16078484058380127
1763367256333031200,8.88303125,0.35278788208961487,-0.9049932956695557,-0.17677615582942963
1763367256343058200,8.89305810546875,0.42382586002349854,-0.9590429663658142,-0.5826914310455322
1763367256353085000,8.9030849609375,0.5287111401557922,-0.7599361538887024,-0.9794696569442749
1763367256363112200,8.9131123046875,0.6316460371017456,-0.36520859599113464,-1.2892565727233887
1763367256373140200,8.92314013671875,0.7047311663627625,0.09581325948238373,-1.543128252029419
1763367256383167000,8.9331669921875,0.6865891814231873,0.5037757158279419,-1.6156784296035767
1763367256393194200,8.9431943359375,0.6507936120033264,0.821071207523346,-1.4393665790557861
1763367256403221200,8.95322119140625,0.7081556916236877,0.6313025951385498,-1.0208641290664673
1763367256413248000,8.963248046875,0.6789556741714478,0.25544729828834534,-0.5967738032341003
1763367256423275000,8.97327490234375,0.6038915514945984,0.17399530112743378,-0.3346579968929291
1763367256433302000,8.983302001953126,0.46139243245124817,0.25521203875541687,-0.24110624194145203
1763367256443328800,8.993328857421876,0.27893367409706116,0.39802032709121704,-0.4360988736152649
1763367256453355800,9.003355712890626,0.03737204149365425,0.5772209763526917,-1.4513698816299438
1763367256463383000,9.013383056640626,-0.2879972755908966,0.5734185576438904,-2.766772747039795
1763367256473410800,9.023410888671876,-0.48907583951950073,0.4386856257915497,-3.432570457458496
1763367256483438000,9.03343798828125,-0.44353047013282776,0.3672146499156952,-3.545837879180908
1763367256493464800,9.04346484375,-0.3313983380794525,0.2593543231487274,-3.3846285343170166
1763367256503491800,9.053491943359376,-0.21313665807247162,0.03197097405791283,-3.043635129928589
1763367256513518800,9.063518798828126,-0.1809152215719223,-0.27383604645729065,-2.5993566513061523
1763367256523545900,9.0735458984375,-0.2268076241016388,-0.6468695402145386,-2.218320369720459
1763367256533572900,9.08357275390625,-0.24606680870056152,-0.9433392882347107,-2.0496537685394287
1763367256543599900,9.093599853515625,-0.2929956912994385,-1.007715106010437,-2.071324348449707
1763367256553627100,9.103627197265626,-0.3733406662940979,-0.7911068201065063,-2.177286386489868
1763367256563654000,9.11365380859375,-0.4083189070224762,-0.21855035424232483,-2.211693048477173
1763367256573682000,9.123681884765626,-0.3270275890827179,0.6034363508224487,-2.122788190841675
1763367256583709000,9.133708984375,-0.13418304920196533,1.5259710550308228,-1.9201973676681519
1763367256593736000,9.14373583984375,0.014285753481090069,1.9829628467559814,-1.973496437072754
1763367256603763000,9.153762939453125,0.037706390023231506,1.5559766292572021,-2.249152660369873
1763367256613789700,9.163789794921875,0.1299656331539154,0.8469797968864441,-2.306046962738037
1763367256623817000,9.17381689453125,0.29951736330986023,0.2844594419002533,-2.1216073036193848
1763367256633844000,9.183843994140625,0.4771297574043274,-0.019577400758862495,-1.8919942378997803
1763367256643870700,9.19387060546875,0.6021018028259277,-0.04956619441509247,-1.7234574556350708
1763367256653898000,9.20389794921875,0.6654412150382996,0.1066427230834961,-1.6015466451644897
1763367256663925000,9.213925048828125,0.6793040037155151,0.4030141830444336,-1.5321664810180664
1763367256673951700,9.22395166015625,0.6236008405685425,0.721261203289032,-1.5001083612442017
1763367256683980000,9.23397998046875,0.5210155844688416,1.0759133100509644,-1.477878212928772
1763367256694007000,9.244007080078125,0.47715315222740173,1.3442920446395874,-1.4490978717803955
1763367256704033800,9.25403369140625,0.43558093905448914,1.5147080421447754,-1.400712490081787
1763367256714060800,9.264060791015625,0.4006650745868683,1.6283564567565918,-1.3061068058013916
1763367256724088000,9.274088134765625,0.39969512820243835,1.5728521347045898,-1.153655767440796
1763367256734114800,9.28411474609375,0.4377261698246002,1.4210811853408813,-0.9428527355194092
1763367256744141800,9.294141845703125,0.46961644291877747,1.2269508838653564,-0.7182603478431702
1763367256754169000,9.304169189453125,0.49534016847610474,1.0664470195770264,-0.4927077889442444
1763367256764195800,9.31419580078125,0.4886862635612488,0.9086890816688538,-0.27092453837394714
1763367256774222800,9.324222900390625,0.45943763852119446,0.8049747943878174,-0.06563091278076172
1763367256784251000,9.3342509765625,0.44043996930122375,0.6807662844657898,0.16098491847515106
1763367256794278000,9.34427783203125,0.40022286772727966,0.5473271012306213,0.4046704173088074
1763367256804305000,9.354304931640625,0.33333492279052734,0.4150736927986145,0.6346924304962158
1763367256814332000,9.364331787109375,0.2609468400478363,0.31425735354423523,0.8575699925422668
1763367256824359000,9.37435888671875,0.17658667266368866,0.2889120578765869,1.044180989265442
1763367256834386000,9.384385986328125,0.11856979876756668,0.29202115535736084,1.195039987564087
1763367256844413000,9.394412841796875,0.08963534981012344,0.30892664194107056,1.3206040859222412
1763367256854440000,9.40443994140625,0.0856177806854248,0.3185650110244751,1.4272485971450806
1763367256864467000,9.414467041015625,0.08200866729021072,0.2702499330043793,1.4875702857971191
1763367256874494000,9.424493896484375,0.037158217281103134,0.23603475093841553,1.4903475046157837
1763367256884521000,9.43452099609375,-0.04071953520178795,0.25680312514305115,1.3820726871490479
1763367256894549000,9.444549072265625,-0.12142970412969589,0.23945888876914978,1.0866221189498901
1763367256904575700,9.45457568359375,-0.1633174866437912,0.22320161759853363,0.5898785591125488
1763367256914603000,9.46460302734375,-0.14728806912899017,0.3593345582485199,0.09620232880115509
1763367256924630000,9.474630126953125,-0.0794120728969574,0.5691533088684082,-0.25157588720321655
1763367256934656800,9.48465673828125,0.06833063066005707,0.6224509477615356,-0.46354004740715027
1763367256944683800,9.494683837890625,0.28703609108924866,0.5292165875434875,-0.5389857888221741
1763367256954711000,9.5047109375,0.5102398991584778,0.5811708569526672,-0.6124246120452881
1763367256964737800,9.51473779296875,0.6973432898521423,0.7115029096603394,-0.6517474055290222
1763367256974764800,9.524764892578125,0.8481396436691284,0.7296793460845947,-0.5190707445144653
1763367256984792000,9.5347919921875,0.879692554473877,0.7344144582748413,-0.2739488184452057
1763367256994818800,9.54481884765625,0.7577834725379944,0.6522842049598694,-0.1380636990070343
1763367257004846800,9.554846923828125,0.5744038224220276,0.21190784871578217,-0.25108906626701355
1763367257014873900,9.564873779296875,0.5085476040840149,-0.22318148612976074,-0.36021319031715393
1763367257024900900,9.57490087890625,0.4183915853500366,-0.1623583436012268,-0.23992274701595306
1763367257034927900,9.584927978515625,0.13781346380710602,0.87879878282547,0.015502776019275188
1763367257044955100,9.594955078125,-0.043808795511722565,1.6565614938735962,-0.04613209143280983
1763367257054982000,9.60498193359375,0.02370518259704113,2.1074576377868652,-0.5234789252281189
1763367257065009000,9.6150087890625,0.19965942203998566,2.204594850540161,-0.9750495553016663
1763367257075036000,9.625035888671874,0.30822938680648804,1.503975510597229,-1.0151863098144531
1763367257085063000,9.63506298828125,0.4462522268295288,0.4353887736797333,-0.4358662962913513
1763367257095090000,9.64508984375,0.5757768750190735,-0.35324037075042725,0.6292762160301208
1763367257105117700,9.65511767578125,0.4882930815219879,-0.7690638899803162,1.6325087547302246
1763367257115145000,9.66514501953125,0.19875329732894897,-1.1324868202209473,1.8874058723449707
1763367257125172000,9.675171875,-0.15285879373550415,-1.5234827995300293,1.3228555917739868
1763367257135198700,9.68519873046875,-0.37714019417762756,-2.134526014328003,1.423046588897705
1763367257145226000,9.69522607421875,-0.558566689491272,-2.5807042121887207,1.968340277671814
1763367257155253000,9.7052529296875,-0.668911874294281,-2.494929790496826,2.136293411254883
1763367257165279700,9.71527978515625,-0.6623940467834473,-2.0589280128479004,1.8986546993255615
1763367257175306800,9.725306640625,-0.6066673994064331,-1.4713106155395508,1.5398650169372559
1763367257185334000,9.735333984375,-0.5735012292861938,-0.9174383282661438,1.2695003747940063
1763367257195361000,9.745361083984376,-0.5731472373008728,-0.5226297974586487,1.1543577909469604
1763367257205387800,9.7553876953125,-0.6359773278236389,-0.3761410415172577,1.1790533065795898
1763367257215415000,9.7654150390625,-0.7175337076187134,-0.42330294847488403,1.2702239751815796
1763367257225442800,9.77544287109375,-0.7215806245803833,-0.49489325284957886,1.399392008781433
1763367257235469800,9.7854697265625,-0.5943313837051392,-0.49529680609703064,1.6009514331817627
1763367257245497000,9.7954970703125,-0.36855944991111755,-0.49090924859046936,1.8645025491714478
1763367257255523800,9.80552392578125,-0.18426740169525146,-0.5441651344299316,2.0614089965820312
1763367257265550800,9.81555078125,-0.1014401763677597,-0.7693217992782593,2.121382713317871
1763367257275577900,9.825577880859376,-0.07333691418170929,-0.9201518893241882,2.0574147701263428
1763367257285604900,9.83560498046875,-0.09579268842935562,-0.8924043774604797,1.8910101652145386
1763367257295632000,9.8456318359375,-0.1786159723997116,-0.6830875873565674,1.6453088521957397
1763367257305659000,9.855658935546876,-0.3214002847671509,-0.3837525546550751,1.3379768133163452
1763367257315686000,9.865685791015625,-0.41364747285842896,0.012290377169847488,1.0363268852233887
1763367257325713000,9.875712890625,-0.4503844380378723,0.5073480606079102,0.7768906950950623
1763367257335741000,9.885740966796876,-0.3785601556301117,0.8976368308067322,0.6110793948173523
1763367257345768000,9.895767822265626,-0.2940966784954071,1.0677094459533691,0.5623188018798828
1763367257355795000,9.905794921875,-0.24363312125205994,1.0217336416244507,0.6290811896324158
1763367257365822000,9.915822021484376,-0.13525418937206268,0.8248178958892822,0.7305968999862671
1763367257375849000,9.925848876953125,-0.03485416620969772,0.5527981519699097,0.8572147488594055
1763367257385876000,9.9358759765625,0.01626201532781124,0.2621231973171234,0.9466490149497986
1763367257395903000,9.945903076171875,0.03891375660896301,0.03468902036547661,0.9660627245903015
1763367257405929700,9.9559296875,0.07531783729791641,-0.14183807373046875,0.9519338607788086
1763367257415957000,9.96595703125,0.12174035608768463,-0.21338863670825958,0.9525123834609985
1763367257425984000,9.97598388671875,0.17879565060138702,-0.2268756926059723,0.9474585056304932
1763367257436012000,9.986011962890625,0.24051865935325623,-0.3659879267215729,0.9220236539840698
1763367257446039000,9.9960390625,0.24633552134037018,-0.5917534828186035,0.9116295576095581
1763367257456065800,10.006065673828125,0.2196023017168045,-0.8988065719604492,0.8914366960525513
1763367257466093000,10.016093017578125,0.1842712014913559,-1.1748229265213013,0.8511103391647339
1763367257476120000,10.0261201171875,0.11894673109054565,-1.2949994802474976,0.795041024684906
1763367257486146800,10.036146728515625,0.04816550016403198,-1.2187713384628296,0.7371657490730286
1763367257496174000,10.046174072265625,-0.058859262615442276,-1.052219033241272,0.6625397205352783
1763367257506201000,10.056201171875,-0.16702541708946228,-0.8190456032752991,0.6432837247848511
1763367257516227800,10.066227783203125,-0.24335457384586334,-0.5318115949630737,0.6899027228355408
1763367257526254800,10.0762548828125,-0.2942177653312683,-0.3072613775730133,0.7724034786224365
1763367257536282000,10.0862822265625,-0.3240477442741394,-0.17480164766311646,0.8648810386657715
1763367257546310000,10.096309814453125,-0.35584375262260437,-0.037351641803979874,0.9706519246101379
1763367257556337000,10.1063369140625,-0.32692933082580566,0.08085158467292786,1.105842113494873
1763367257566364200,10.1163642578125,-0.2861851155757904,0.07319020479917526,1.2699083089828491
1763367257576391000,10.126390869140625,-0.23523016273975372,0.017399072647094727,1.4723767042160034
1763367257586418000,10.13641796875,-0.16160894930362701,-0.04653490334749222,1.6787453889846802
1763367257596445200,10.146445068359375,-0.07935462146997452,-0.15566416084766388,1.8059543371200562
1763367257606472000,10.156471923828125,-0.0018148249946534634,-0.33752772212028503,1.7902376651763916
1763367257616499000,10.1664990234375,0.04579347372055054,-0.5579403042793274,1.5844331979751587
1763367257626526000,10.17652587890625,0.04652078449726105,-0.7392001152038574,1.2071110010147095
1763367257636553000,10.186552978515625,0.03527696803212166,-0.8378031849861145,0.7011170983314514
1763367257646581000,10.1965810546875,0.059746358543634415,-0.9229345917701721,0.15180735290050507
1763367257656607700,10.206607666015625,0.13062384724617004,-1.0890648365020752,-0.3264692425727844
1763367257666635000,10.216635009765625,0.21207743883132935,-1.205324411392212,-0.6284621357917786
1763367257676662000,10.226662109375,0.2570904493331909,-1.0793726444244385,-0.8037537932395935
1763367257686689000,10.23668896484375,0.2903655767440796,-0.8399698734283447,-1.0110862255096436
1763367257696716000,10.246716064453125,0.3591407835483551,-0.5512003302574158,-1.2079392671585083
1763367257706743000,10.256742919921875,0.44232994318008423,-0.35295361280441284,-1.2887749671936035
1763367257716770000,10.26677001953125,0.541508674621582,-0.24429355561733246,-1.2679893970489502
1763367257726796800,10.276796875,0.5863797664642334,-0.2332555502653122,-1.1578189134597778
1763367257736824000,10.286823974609375,0.5519125461578369,-0.3080154359340668,-1.005074143409729
1763367257746851800,10.296851806640625,0.6138555407524109,-0.22953340411186218,-0.9331293702125549
1763367257756879000,10.306879150390625,0.7892212867736816,-0.00964837335050106,-0.8274595737457275
1763367257766906000,10.316906005859375,0.8416509032249451,0.20926213264465332,-0.7285348773002625
1763367257776932900,10.326932861328125,0.8152431845664978,0.38644400238990784,-0.6269689202308655
1763367257786960000,10.3369599609375,0.7401337623596191,0.6557982563972473,-0.5637041926383972
1763367257796987100,10.346987060546875,0.5986443758010864,0.9123108983039856,-0.6231295466423035
1763367257807014000,10.357013916015624,0.34709012508392334,1.355513572692871,-0.9821151494979858
1763367257817041000,10.367041015625,-0.18864187598228455,1.9650518894195557,-2.1715352535247803
1763367257827068200,10.377068115234374,-0.8329140543937683,1.6744464635849,-3.4969208240509033
1763367257837095000,10.387094970703124,-1.0900660753250122,0.5204252600669861,-4.027891159057617
1763367257847122000,10.397121826171874,-1.0163733959197998,-0.8638980984687805,-3.9078996181488037
1763367257857150000,10.40714990234375,-0.7577345967292786,-2.0233070850372314,-3.380769729614258
1763367257867177000,10.417177001953124,-0.4425508677959442,-2.803709030151367,-2.7575325965881348
1763367257877204000,10.427203857421874,-0.28281286358833313,-3.2013213634490967,-2.2796032428741455
1763367257887231000,10.43723095703125,-0.2572219967842102,-3.1776628494262695,-2.1072940826416016
1763367257897258000,10.447258056640624,-0.2841213047504425,-2.511427640914917,-2.2106516361236572
1763367257907285000,10.457284912109374,-0.3792821764945984,-1.3832206726074219,-2.37137770652771
1763367257917312000,10.46731201171875,-0.44565922021865845,-0.043712541460990906,-2.456164598464966
1763367257927339000,10.477339111328124,-0.41215211153030396,1.199501395225525,-2.385688543319702
1763367257937366000,10.487365966796874,-0.3626531958580017,2.1354784965515137,-2.1270768642425537
1763367257947393000,10.49739306640625,-0.2924373745918274,2.637779712677002,-1.791305661201477
1763367257957421000,10.507421142578124,-0.248693585395813,2.491689920425415,-1.69159734249115
1763367257967448000,10.517447998046874,-0.12113482505083084,1.6208622455596924,-2.015843152999878
1763367257977474800,10.527474853515624,0.10220282524824142,0.6298243999481201,-2.2828903198242188
1763367257987502000,10.537502197265624,0.2906888723373413,-0.10172703117132187,-2.251840353012085
1763367257997529000,10.547529052734374,0.4403838813304901,-0.6212829947471619,-2.0104174613952637
1763367258007555800,10.557555908203126,0.6353161334991455,-0.7443063855171204,-1.6735527515411377
1763367258017582800,10.567582763671876,0.915105938911438,-0.11385832726955414,-1.2766448259353638
1763367258027610000,10.577610107421876,1.1308826208114624,0.3409837484359741,-1.1218938827514648
1763367258037637000,10.58763720703125,1.199867606163025,0.5259339809417725,-1.116942286491394
1763367258047663900,10.597663818359376,1.1215999126434326,0.664339005947113,-1.112840175628662
1763367258057692200,10.607692138671876,1.0112534761428833,0.9023740291595459,-1.0733280181884766
1763367258067719000,10.617718994140626,0.9072490334510803,1.2037899494171143,-0.9981992840766907
1763367258077746000,10.627745849609376,0.8209177255630493,1.4765617847442627,-0.916064977645874
1763367258087773200,10.637773193359376,0.748538613319397,1.558040976524353,-0.7908061146736145
1763367258097800000,10.647800048828126,0.6890333890914917,1.4614906311035156,-0.6155239343643188
1763367258107827000,10.657826904296876,0.6598547101020813,1.3089503049850464,-0.4151325225830078
1763367258117854000,10.66785400390625,0.6343995928764343,1.0299845933914185,-0.2167758345603943
1763367258127881000,10.677880859375,0.585566520690918,0.701068639755249,-0.008283074013888836
1763367258137908000,10.687907958984376,0.5072156190872192,0.41392064094543457,0.19301076233386993
1763367258147935000,10.69793505859375,0.40695029497146606,0.173004150390625,0.39774125814437866
1763367258157963000,10.707962890625,0.2891402840614319,-0.026163803413510323,0.6224049925804138
1763367258167990000,10.717989990234376,0.1675424724817276,-0.17820286750793457,0.8518615961074829
1763367258178017000,10.72801708984375,0.05932806804776192,-0.3016023337841034,1.0727988481521606
1763367258188044000,10.7380439453125,-0.00527595728635788,-0.3644638657569885,1.2863646745681763
1763367258198071000,10.748071044921875,-0.08288294821977615,-0.4058194160461426,1.4802272319793701
1763367258208098000,10.75809814453125,-0.1684042364358902,-0.5155797004699707,1.632831335067749
1763367258218124800,10.768124755859375,-0.2745439112186432,-0.6137421131134033,1.7408338785171509
1763367258228152000,10.778152099609375,-0.3667268455028534,-0.6733465790748596,1.7984164953231812
1763367258238179000,10.788178955078125,-0.44550806283950806,-0.5973597764968872,1.8023515939712524
1763367258248205800,10.798205810546875,-0.4644383490085602,-0.5030799508094788,1.658310890197754
1763367258258234000,10.808234130859375,-0.31675124168395996,-0.4796173870563507,1.3932276964187622
1763367258268260900,10.8182607421875,-0.0185826625674963,-0.6986802220344543,0.8900242447853088
1763367258278288000,10.828287841796875,0.35929203033447266,-0.9093034863471985,0.14254072308540344
1763367258288315100,10.838315185546875,0.727850079536438,-0.5368098020553589,-0.4247341752052307
1763367258298342000,10.848341796875,0.9405564069747925,0.05163911357522011,-0.5941749215126038
1763367258308369000,10.858368896484375,1.0136346817016602,0.44308143854141235,-0.5070219039916992
1763367258318396200,10.868396240234375,0.995303213596344,0.7631980180740356,-0.3212902843952179
1763367258328423000,10.8784228515625,0.9123465418815613,1.0706716775894165,-0.19331181049346924
1763367258338450000,10.888449951171875,0.8331453204154968,1.147645354270935,-0.15844903886318207
1763367258348478000,10.89847802734375,0.6642260551452637,1.0190626382827759,-0.11023490875959396
1763367258358505000,10.9085048828125,0.3540479838848114,0.7439742684364319,-0.005912076681852341
1763367258368532000,10.918531982421875,-0.044496990740299225,0.5210874080657959,0.06386487185955048
1763367258378559000,10.92855908203125,-0.26652681827545166,0.5763301253318787,-0.14183293282985687
1763367258388586000,10.9385859375,-0.21126888692378998,1.2943086624145508,-0.46168655157089233
1763367258398613000,10.948613037109375,-0.10728298872709274,2.118784189224243,-0.6818085312843323
1763367258408640000,10.958639892578125,0.04303993657231331,1.953429937362671,-1.2977521419525146
1763367258418667000,10.9686669921875,0.2843702435493469,1.4475988149642944,-1.7200032472610474
1763367258428695000,10.978695068359375,0.4500638544559479,0.9686152338981628,-1.4832727909088135
1763367258438721800,10.9887216796875,0.49865788221359253,0.5197721123695374,-0.6271540522575378
1763367258448749000,10.9987490234375,0.8229188323020935,0.16966333985328674,0.5138815641403198
1763367258458776800,11.00877685546875,1.0696039199829102,-0.25911396741867065,1.246293067932129
1763367258468803800,11.018803955078125,0.8249800205230713,-1.0229601860046387,1.8048954010009766
1763367258478831000,11.0288310546875,0.36832961440086365,-1.2006598711013794,2.2824249267578125
1763367258488858000,11.038858154296875,-0.4944850504398346,-2.22137713432312,2.2075791358947754
1763367258498884900,11.048884765625,-1.2912310361862183,-3.7719881534576416,2.300801992416382
1763367258508912000,11.058912109375,-1.521751880645752,-4.227034091949463,2.155611753463745
1763367258518939100,11.068939208984375,-1.2963976860046387,-3.193711757659912,1.9738004207611084
1763367258528966000,11.0789658203125,-0.9253248572349548,-1.6769287586212158,1.8395161628723145
1763367258538993000,11.088992919921875,-0.6676160097122192,-0.8323596715927124,1.59208083152771
1763367258549020200,11.099020263671875,-0.502130925655365,-0.6679883003234863,1.3201611042022705
1763367258559048000,11.1090478515625,-0.2861533761024475,-0.8870239853858948,1.2460635900497437
1763367258569075000,11.119074951171875,-0.03374402970075607,-1.2083942890167236,1.4090105295181274
1763367258579102000,11.12910205078125,0.17546908557415009,-1.5829132795333862,1.6623587608337402
1763367258589129000,11.13912890625,0.27939119935035706,-1.9877525568008423,1.8524658679962158
1763367258599156000,11.149156005859375,0.2710084319114685,-2.316206693649292,1.96945059299469
1763367258609183000,11.159182861328125,0.2248489260673523,-2.4299087524414062,2.046278476715088
1763367258619210000,11.1692099609375,0.15025322139263153,-2.333548069000244,2.058021306991577
1763367258629237000,11.179237060546875,0.01599288173019886,-2.074009895324707,1.9628376960754395
1763367258639263700,11.189263671875,-0.16282890737056732,-1.664721131324768,1.7078471183776855
1763367258649291000,11.199291015625,-0.3663325011730194,-1.1629235744476318,1.283473253250122
1763367258659319000,11.209319091796875,-0.5438576936721802,-0.6341521739959717,0.8131195902824402
1763367258669346000,11.219345947265625,-0.672010064125061,-0.051820095628499985,0.4279457628726959
1763367258679373000,11.229373046875,-0.7395680546760559,0.44625893235206604,0.2133961170911789
1763367258689400000,11.239400146484375,-0.7733563780784607,0.8041688799858093,0.14081858098506927
1763367258699426800,11.2494267578125,-0.78763347864151,1.0826953649520874,0.19451549649238586
1763367258709454000,11.2594541015625,-0.745267927646637,1.1355946063995361,0.3612120747566223
1763367258719481000,11.269481201171875,-0.6396644115447998,0.8624770045280457,0.5715266466140747
1763367258729507800,11.2795078125,-0.4506724178791046,0.33951178193092346,0.7687696814537048
1763367258739535000,11.28953515625,-0.2814573049545288,-0.20832103490829468,0.8968194127082825
1763367258749562000,11.29956201171875,-0.1759875863790512,-0.5534286499023438,0.9186866283416748
1763367258759588900,11.3095888671875,-0.12123718857765198,-0.6512330770492554,0.872043251991272
1763367258769617200,11.3196171875,-0.08479449152946472,-0.5835488438606262,0.778122067451477
1763367258779644000,11.329643798828124,-0.07827604562044144,-0.48058927059173584,0.6995669007301331
1763367258789671000,11.3396708984375,-0.11186382919549942,-0.4665594696998596,0.6751757860183716
1763367258799698000,11.349697998046874,-0.11938636749982834,-0.5503675937652588,0.7041937112808228
1763367258809725000,11.359724853515624,-0.11370185017585754,-0.7140313386917114,0.7964381575584412
1763367258819752000,11.369751953125,-0.12284015864133835,-0.940760612487793,0.9012664556503296
1763367258829779000,11.379779052734374,-0.16092655062675476,-1.1854270696640015,0.955628514289856
1763367258839806000,11.389805908203124,-0.22446416318416595,-1.31834077835083,0.9437322616577148
1763367258849833000,11.3998330078125,-0.2993999123573303,-1.2635446786880493,0.8736498355865479
1763367258859860000,11.40985986328125,-0.3630351424217224,-1.0573785305023193,0.7741460800170898
1763367258869888000,11.419887939453124,-0.4564298093318939,-0.7708567380905151,0.7059420347213745
1763367258879915000,11.4299150390625,-0.576484739780426,-0.46172651648521423,0.698143482208252
1763367258889942000,11.43994189453125,-0.6621072292327881,-0.1659630537033081,0.7606507539749146
1763367258899969000,11.449968994140624,-0.6469945907592773,0.03552871569991112,0.872408390045166
1763367258909996000,11.45999609375,-0.578517496585846,0.07903864234685898,1.0529958009719849
1763367258920023000,11.47002294921875,-0.468629390001297,-0.041624486446380615,1.249640703201294
1763367258930049800,11.4800498046875,-0.3604600429534912,-0.3623335361480713,1.3466659784317017
1763367258940077000,11.4900771484375,-0.23592211306095123,-0.797191321849823,1.2868678569793701
1763367258950104000,11.50010400390625,-0.08350007981061935,-1.138997197151184,1.0890271663665771
1763367258960130800,11.510130859375,0.10743433982133865,-1.2577861547470093,0.8156352043151855
1763367258970158000,11.520157958984376,0.2579074800014496,-1.2358886003494263,0.5678014755249023
1763367258980186000,11.53018603515625,0.2915995717048645,-1.2251980304718018,0.4006580412387848
1763367258990212900,11.540212890625,0.23749293386936188,-1.298027515411377,0.2915073335170746
1763367259000240000,11.550240234375,0.21360965073108673,-1.3793824911117554,0.1893443763256073
1763367259010267100,11.56026708984375,0.2654944062232971,-1.3870444297790527,0.029497448354959488
1763367259020294000,11.5702939453125,0.35789257287979126,-1.3023420572280884,-0.10572410374879837
1763367259030321000,11.58032080078125,0.5104219317436218,-1.244337797164917,-0.1733476221561432
1763367259040348200,11.59034814453125,0.617622971534729,-1.2945504188537598,-0.11324480921030045
1763367259050375000,11.600375,0.7089531421661377,-1.331040859222412,0.03670606389641762
1763367259060402000,11.61040185546875,0.7608418464660645,-1.1962735652923584,0.20610038936138153
1763367259070429200,11.62042919921875,0.7869179248809814,-0.865233838558197,0.27461767196655273
1763367259080456000,11.6304560546875,0.8110480904579163,-0.3417356610298157,0.2516077160835266
1763367259090484000,11.64048388671875,0.8081330060958862,0.12377426028251648,0.21796399354934692
1763367259100511000,11.650510986328126,0.6848940253257751,0.4985920488834381,0.1839030534029007
1763367259110538000,11.6605380859375,0.480272501707077,0.9807323217391968,-0.0327533520758152
1763367259120565000,11.67056494140625,0.24030135571956635,1.4343934059143066,-0.5722214579582214
1763367259130591700,11.680591796875,-0.05536625161767006,1.4822957515716553,-1.2846887111663818
1763367259140619000,11.690618896484375,-0.28154414892196655,0.8599880933761597,-1.9183282852172852
1763367259150646000,11.70064599609375,-0.3632161021232605,-0.03967165946960449,-2.3329262733459473
1763367259160673000,11.710673095703125,-0.2918213903903961,-0.6400108933448792,-2.585327386856079
1763367259170700000,11.720699951171875,-0.08703549951314926,-0.8376840353012085,-2.8073151111602783
1763367259180727000,11.73072705078125,0.009796256199479103,-0.8057880401611328,-3.0923893451690674
1763367259190754000,11.740754150390625,0.005434797611087561,-0.6476436257362366,-3.2684199810028076
1763367259200782000,11.750781982421875,-0.0123772406950593,-0.46049705147743225,-3.2773656845092773
1763367259210809000,11.76080908203125,-0.004018909297883511,-0.33508560061454773,-3.17655348777771
1763367259220835800,11.7708359375,-0.04585929960012436,-0.45328280329704285,-3.0848591327667236
1763367259230863000,11.780863037109375,-0.181320458650589,-0.8650094270706177,-2.9894590377807617
1763367259240890000,11.79089013671875,-0.30647212266921997,-1.4007622003555298,-2.8443362712860107
1763367259250916900,11.800916748046875,-0.3522406816482544,-1.6996605396270752,-2.6170172691345215
1763367259260944000,11.81094384765625,-0.3040336072444916,-1.7898222208023071,-2.3362834453582764
1763367259270971100,11.82097119140625,-0.11711643636226654,-1.4537789821624756,-1.970704436302185
1763367259280998000,11.830997802734375,0.10741885006427765,-0.48990628123283386,-1.5972784757614136
1763367259291025000,11.84102490234375,0.3969973921775818,0.3988747298717499,-1.6515758037567139
1763367259301052200,11.85105224609375,0.5592249035835266,0.6909428834915161,-2.1631689071655273
1763367259311079000,11.861078857421875,0.5245441198348999,0.5942254066467285,-2.5237834453582764
1763367259321107000,11.87110693359375,0.4385623335838318,0.22216801345348358,-2.5516796112060547
1763367259331134200,11.88113427734375,0.5531225204467773,-0.04832207038998604,-2.345431327819824
1763367259341161000,11.891160888671875,0.6468585133552551,-0.11137835681438446,-2.0895512104034424
1763367259351188000,11.90118798828125,0.7176426649093628,0.08027389645576477,-1.8836971521377563
1763367259361215000,11.911215087890625,0.7767577767372131,0.3771127164363861,-1.7361751794815063
1763367259371242000,11.921241943359375,0.9222803711891174,0.5542967915534973,-1.6300369501113892
1763367259381269000,11.93126904296875,1.0368940830230713,0.7675064206123352,-1.6220229864120483
1763367259391296000,11.9412958984375,1.0786726474761963,1.0849777460098267,-1.6391843557357788
1763367259401323000,11.951322998046875,1.0820820331573486,1.289851188659668,-1.6001927852630615
1763367259411350000,11.96135009765625,1.0449812412261963,1.5810141563415527,-1.5585113763809204
1763367259421377000,11.971376953125,0.9828360676765442,1.8439205884933472,-1.4761959314346313
1763367259431404000,11.981404052734375,0.9380787014961243,2.053828716278076,-1.313933253288269
1763367259441431000,11.99143115234375,0.8739376664161682,2.2574474811553955,-1.123691439628601
1763367259451458300,12.001458251953125,0.8397112488746643,2.2769997119903564,-0.8838033080101013
1763367259461485000,12.011485107421874,0.7964059114456177,2.177762269973755,-0.6003850102424622
1763367259471512000,12.021511962890624,0.7485036849975586,2.017920970916748,-0.32212191820144653
1763367259481539000,12.0315390625,0.7058939337730408,1.8269394636154175,-0.06065132096409798
1763367259491566000,12.041566162109374,0.6803547143936157,1.5935360193252563,0.2037142813205719
1763367259501593000,12.051593017578124,0.645571231842041,1.289272427558899,0.45718878507614136
1763367259511620000,12.0616201171875,0.5790164470672607,1.045311689376831,0.675323486328125
1763367259521647000,12.071647216796874,0.5367856025695801,0.7654377222061157,0.8869265913963318
1763367259531674000,12.081674072265624,0.46581336855888367,0.48113229870796204,1.088053584098816
1763367259541701000,12.091701171875,0.3926410973072052,0.23266367614269257,1.2673413753509521
1763367259551729200,12.101729248046874,0.3272594213485718,0.10124388337135315,1.412524938583374
1763367259561756200,12.111756103515624,0.2944204807281494,0.04493451863527298,1.5035439729690552
1763367259571783200,12.121783203125,0.26471132040023804,0.07644530385732651,1.5504510402679443
1763367259581810000,12.131809814453124,0.216476172208786,0.18719400465488434,1.5356844663619995
1763367259591837200,12.141837158203124,0.1733473390340805,0.34886255860328674,1.4042795896530151
1763367259601864200,12.1518642578125,0.10203196853399277,0.4614769220352173,1.1034307479858398
1763367259611891000,12.161890869140626,0.11275012791156769,0.45174917578697205,0.6075765490531921
1763367259621918200,12.171918212890626,0.18495309352874756,0.527370035648346,0.06765665113925934
1763367259631945200,12.1819453125,0.3286604583263397,0.813607394695282,-0.36468198895454407
1763367259641972000,12.191971923828126,0.4156422019004822,1.1494947671890259,-0.582466185092926
1763367259651999000,12.2019990234375,0.4907228350639343,1.3767255544662476,-0.634843647480011
1763367259662026200,12.212026123046876,0.6032247543334961,1.5149811506271362,-0.621462345123291
1763367259672054000,12.222053955078126,0.7100968956947327,1.502213478088379,-0.5270758867263794
1763367259682081300,12.232081298828126,0.7314624786376953,1.34120512008667,-0.3658129870891571
1763367259692108000,12.24210791015625,0.6503564119338989,0.9611003398895264,-0.09407706558704376
1763367259702135000,12.252135009765626,0.41794949769973755,0.5103775858879089,0.15762528777122498
1763367259712162000,12.262162109375,0.21189434826374054,0.22199483215808868,0.1811428666114807
1763367259722189300,12.272189208984376,0.164807990193367,0.3408888876438141,0.03125639632344246
1763367259732216000,12.282216064453126,0.14597757160663605,0.8361961245536804,-0.1257055252790451
1763367259742243000,12.2922431640625,0.031297940760850906,1.6973623037338257,-0.2687075734138489
1763367259752270300,12.302270263671875,-0.05475065857172012,2.287834882736206,-0.6021193265914917
1763367259762297000,12.312297119140625,-0.043236516416072845,2.644939422607422,-1.2019240856170654
1763367259772324000,12.322323974609375,0.017524832859635353,2.6862778663635254,-1.6086305379867554
1763367259782351000,12.33235107421875,0.09698253124952316,1.886885166168213,-1.0553630590438843
1763367259792379100,12.342379150390625,0.4195137023925781,0.6806146502494812,0.08797600865364075
1763367259802406100,12.35240625,0.8218434453010559,-0.11700765043497086,1.2925617694854736
1763367259812433000,12.362432861328125,0.954828143119812,-0.43839871883392334,2.063372850418091
1763367259822460200,12.372460205078125,0.6191730499267578,-0.7363629937171936,1.6285173892974854
1763367259832487200,12.382487060546875,0.026577619835734367,-0.9457675814628601,1.0926427841186523
1763367259842514000,12.392513916015625,-0.35492414236068726,-1.7113186120986938,1.7707396745681763
1763367259852541200,12.402541259765625,-0.5850942134857178,-2.7058801651000977,2.5422892570495605
1763367259862568200,12.412568115234375,-0.7099223136901855,-2.7721941471099854,2.504214286804199
1763367259872595000,12.422594970703125,-0.7329147458076477,-1.6034901142120361,1.939404010772705
1763367259882622000,12.4326220703125,-0.5541152954101562,-0.1506105363368988,1.3765857219696045
1763367259892649200,12.442649169921875,-0.4111975431442261,0.5394411683082581,1.0931830406188965
1763367259902676200,12.45267626953125,-0.4485369324684143,0.3555247187614441,1.1106425523757935
1763367259912704000,12.4627041015625,-0.49286016821861267,-0.1699286699295044,1.3471599817276
1763367259922731300,12.472731201171875,-0.5129565000534058,-0.696548342704773,1.6149955987930298
1763367259932758000,12.482758056640625,-0.5027517676353455,-0.88093501329422,1.793681263923645
1763367259942785000,12.492784912109375,-0.4037136137485504,-0.6169890761375427,1.8825993537902832
1763367259952812300,12.502812255859375,-0.30792316794395447,-0.27746376395225525,1.850862979888916
1763367259962839000,12.512839111328125,-0.2639320194721222,-0.07325320690870285,1.772929310798645
1763367259972866000,12.522865966796875,-0.24730618298053741,-0.12471985816955566,1.7010537385940552
1763367259982893000,12.53289306640625,-0.25200194120407104,-0.17220333218574524,1.6548686027526855
1763367259992920000,12.542920166015625,-0.30375275015830994,-0.303311824798584,1.5870829820632935
1763367260002947000,12.552947021484375,-0.43043553829193115,-0.4198548197746277,1.4755818843841553
1763367260012974000,12.56297412109375,-0.5978559255599976,-0.3473670482635498,1.3437268733978271
1763367260023001000,12.5730009765625,-0.6440340876579285,-0.18022260069847107,1.2895678281784058
1763367260033028000,12.583028076171875,-0.6472018957138062,0.2175508737564087,1.2421833276748657
1763367260043056000,12.59305615234375,-0.6652312278747559,0.6730678081512451,1.1134130954742432
1763367260053083100,12.603083251953125,-0.614112138748169,1.0632597208023071,0.9447607398033142
1763367260063110100,12.613110107421875,-0.45504751801490784,1.3682509660720825,0.8282203078269958
1763367260073137200,12.62313720703125,-0.2629829943180084,1.4843045473098755,0.7956229448318481
