time,seconds_elapsed,z,y,x
1763367247534246000,0.084245849609375,0.4556109309196472,1.7656829357147217,-0.05842043459415436
1763367247544273000,0.09427294921875,0.5811960101127625,2.059216022491455,-0.24114631116390228
1763367247554300000,0.1042998046875,0.6928309202194214,2.3828611373901367,-0.5155261754989624
1763367247564327000,0.114326904296875,0.7240756750106812,2.3962135314941406,-0.7631895542144775
1763367247574354000,0.12435400390625,0.6361522078514099,2.1754837036132812,-0.9591542482376099
1763367247584381000,0.134380859375,0.4722687304019928,1.7138773202896118,-1.0591481924057007
1763367247594407700,0.14440771484375,0.28045162558555603,1.1580337285995483,-1.057835578918457
1763367247604435000,0.15443505859375,0.07918403297662735,0.7220538258552551,-0.9433693885803223
1763367247614462000,0.1644619140625,-0.13271597027778625,0.5561383366584778,-0.7135804295539856
1763367247624488700,0.17448876953125,-0.37942934036254883,0.5229620337486267,-0.3760332763195038
1763367247634517000,0.18451708984375,-0.6269344687461853,0.4793032109737396,-0.009415073320269585
1763367247644544000,0.1945439453125,-0.8444889187812805,0.36684030294418335,0.29973292350769043
1763367247654570800,0.20457080078125,-1.041775107383728,0.1492278277873993,0.5327445864677429
1763367247664598000,0.214597900390625,-1.252413272857666,-0.1171809509396553,0.7048130631446838
1763367247674625000,0.224625,-1.4932488203048706,-0.3262462913990021,0.8578454852104187
1763367247684651800,0.23465185546875,-1.7659649848937988,-0.3340165913105011,0.9970654249191284
1763367247694678800,0.2446787109375,-1.9314152002334595,-0.09704798460006714,1.0851178169250488
1763367247704706000,0.2547060546875,-1.8751202821731567,0.6258249878883362,1.0570334196090698
1763367247714732800,0.26473291015625,-1.6841002702713013,1.6245464086532593,0.9771692156791687
1763367247724759800,0.274759765625,-1.4928152561187744,2.6805977821350098,0.9077988862991333
1763367247734787000,0.284787109375,-1.4000182151794434,3.4200549125671387,0.7928576469421387
1763367247744814800,0.29481494140625,-1.3955001831054688,3.9145970344543457,0.7482571601867676
1763367247754841900,0.304841796875,-1.3793115615844727,4.075076103210449,0.7601143717765808
1763367247764868900,0.314868896484375,-1.3212192058563232,3.967294692993164,0.7629706263542175
1763367247774895900,0.324895751953125,-1.332375168800354,3.8879921436309814,0.6493117213249207
1763367247784923000,0.3349228515625,-1.538597583770752,4.0190887451171875,0.40896594524383545
1763367247794950000,0.344949951171875,-1.799575686454773,4.385883331298828,0.18839973211288452
1763367247804977000,0.354976806640625,-1.9933747053146362,4.439305782318115,0.10398764908313751
1763367247815004000,0.36500390625,-2.1230762004852295,4.121636867523193,0.16254150867462158
1763367247825031000,0.375031005859375,-2.20915150642395,3.346236228942871,0.45173683762550354
1763367247835058000,0.385057861328125,-2.28421950340271,2.9242892265319824,0.8798037767410278
1763367247845086000,0.3950859375,-2.3567299842834473,2.4609110355377197,1.3709862232208252
1763367247855112700,0.40511279296875,-2.4172980785369873,2.07837176322937,1.7527046203613281
1763367247865140000,0.415139892578125,-2.416386127471924,2.1784183979034424,1.6253442764282227
1763367247875167000,0.4251669921875,-2.295948028564453,2.292571544647217,1.0608278512954712
1763367247885193700,0.43519384765625,-2.155488967895508,1.934075951576233,0.5381311178207397
1763367247895221000,0.445220947265625,-2.1680853366851807,1.6500011682510376,0.0569106861948967
1763367247905248000,0.455248046875,-2.348799467086792,1.5960705280303955,-0.3446868062019348
1763367247915274800,0.465274658203125,-2.6541404724121094,1.7960102558135986,-0.6236957907676697
1763367247925301800,0.4753017578125,-2.9784038066864014,2.2637572288513184,-0.7412291169166565
1763367247935329000,0.4853291015625,-3.2608842849731445,2.598314046859741,-0.6239597201347351
1763367247945356800,0.495356689453125,-3.429044008255005,2.641829490661621,-0.334661066532135
1763367247955384000,0.505384033203125,-3.4359307289123535,2.5192198753356934,0.008565524592995644
1763367247965411000,0.5154111328125,-3.3739051818847656,2.3322577476501465,0.3304239809513092
1763367247975437800,0.525437744140625,-3.2263965606689453,2.1951282024383545,0.6022384762763977
1763367247985464800,0.53546484375,-2.94358491897583,2.1940906047821045,0.7869465351104736
1763367247995492000,0.5454921875,-2.6223297119140625,2.2781577110290527,0.8627728223800659
1763367248005518800,0.555518798828125,-2.3860015869140625,2.341390609741211,0.8660240173339844
1763367248015545900,0.5655458984375,-2.2181737422943115,2.2683210372924805,0.7861701846122742
1763367248025573000,0.575572998046875,-2.0717952251434326,2.0363821983337402,0.5669230818748474
1763367248035600000,0.585599853515625,-1.9536163806915283,1.5558745861053467,0.20548418164253235
1763367248045628000,0.5956279296875,-1.819826364517212,0.8846224546432495,-0.3743874430656433
1763367248055655000,0.605655029296875,-1.681068778038025,0.2921468913555145,-1.0308606624603271
1763367248065682000,0.615681884765625,-1.6176868677139282,0.20701895654201508,-1.492774248123169
1763367248075709000,0.625708984375,-1.1747909784317017,0.2784918248653412,-1.8652937412261963
1763367248085735700,0.635735595703125,-0.4740264117717743,0.4042108654975891,-2.2543976306915283
1763367248095763000,0.645762939453125,0.059608202427625656,0.4906136691570282,-2.5292017459869385
1763367248105790000,0.6557900390625,0.5362096428871155,0.2911042869091034,-2.8931777477264404
1763367248115816700,0.665816650390625,0.7514460682868958,-0.13905908167362213,-3.3700625896453857
1763367248125844000,0.675843994140625,0.6331495046615601,-0.5436132550239563,-3.6582961082458496
1763367248135871000,0.68587109375,0.35327285528182983,-0.8663116693496704,-3.745373010635376
1763367248145898000,0.69589794921875,0.17440323531627655,-0.9337106347084045,-3.4631214141845703
1763367248155926000,0.705926025390625,0.11557240039110184,-0.9012659192085266,-3.0691044330596924
1763367248165953000,0.715953125,0.079947829246521,-0.7373805642127991,-2.5717132091522217
1763367248175979800,0.725979736328125,0.0840778574347496,-0.5964130759239197,-2.0072720050811768
1763367248186006800,0.7360068359375,0.11498250812292099,-0.1786736100912094,-1.4274311065673828
1763367248196034000,0.746033935546875,0.07131092995405197,0.20231981575489044,-0.8169507384300232
1763367248206060800,0.756060791015625,0.01173308864235878,0.40633872151374817,-0.2027512490749359
1763367248216087800,0.766087890625,-0.10524918884038925,0.4536188840866089,0.282245010137558
1763367248226115000,0.776114990234375,-0.24454715847969055,0.46498313546180725,0.5703281760215759
1763367248236141800,0.786141845703125,-0.37209632992744446,0.424952894449234,0.7161306738853455
1763367248246168800,0.7961689453125,-0.4745209813117981,0.23045025765895844,0.8202064633369446
1763367248256196900,0.80619677734375,-0.46711739897727966,0.07620688527822495,0.9362263083457947
1763367248266223900,0.816223876953125,-0.3095589280128479,0.1689232438802719,1.1091336011886597
1763367248276251000,0.8262509765625,-0.05127357318997383,0.47557371854782104,1.3869057893753052
1763367248286278000,0.83627783203125,0.22711464762687683,0.7687022686004639,1.7640504837036133
1763367248296305000,0.846304931640625,0.40328699350357056,0.9883919954299927,2.2048676013946533
1763367248306332000,0.856331787109375,0.3889696002006531,1.1004115343093872,2.6656856536865234
1763367248316359000,0.86635888671875,0.18690970540046692,1.1605733633041382,3.1206769943237305
1763367248326386000,0.876385986328125,-0.10786974430084229,1.0788979530334473,3.565805196762085
1763367248336413000,0.886412841796875,-0.4521331191062927,0.7493615746498108,3.9952046871185303
1763367248346440000,0.89643994140625,-0.7056980133056641,0.5247836112976074,4.338992118835449
1763367248356468000,0.906468017578125,-0.7188284397125244,0.9066606760025024,4.449838161468506
1763367248366495000,0.916494873046875,-0.5037971138954163,1.5017656087875366,4.212317943572998
1763367248376521700,0.926521728515625,-0.2632702589035034,1.4220070838928223,3.7367918491363525
1763367248386549000,0.936549072265625,-0.06137174740433693,1.1453381776809692,3.0637786388397217
1763367248396576000,0.946575927734375,0.09145747870206833,0.8495507836341858,2.2891645431518555
1763367248406602800,0.956602783203125,0.17860542237758636,0.4999142289161682,1.6972641944885254
1763367248416629800,0.966629638671875,0.2368847131729126,0.07373600453138351,1.3949989080429077
1763367248426657000,0.976656982421875,0.23267053067684174,-0.3438958525657654,1.2959703207015991
1763367248436683800,0.986683837890625,0.21147257089614868,-0.6041575074195862,1.342802882194519
1763367248446711800,0.9967119140625,0.20503917336463928,-0.5690682530403137,1.4930908679962158
1763367248456739000,1.006739013671875,0.27407336235046387,-0.28163594007492065,1.686806559562683
1763367248466765800,1.016765869140625,0.36542803049087524,0.22674766182899475,1.8292206525802612
1763367248476792800,1.026792724609375,0.35190823674201965,0.7201219201087952,1.8740200996398926
1763367248486819800,1.03681982421875,0.30394551157951355,0.8436495065689087,1.89476478099823
1763367248496846800,1.046846923828125,0.1927393525838852,0.7586232423782349,1.8826141357421875
1763367248506873900,1.056873779296875,-0.016456471756100655,0.4087086617946625,1.857546329498291
1763367248516900900,1.06690087890625,-0.15991589426994324,-0.3555242717266083,1.7811654806137085
1763367248526928000,1.076927978515625,-0.038244590163230896,-0.44564324617385864,1.5958247184753418
1763367248536955000,1.086954833984375,0.3810690641403198,-0.02786491997539997,1.3015395402908325
1763367248546982700,1.096982666015625,0.8337646126747131,0.6942810416221619,1.0741794109344482
1763367248557010000,1.107010009765625,0.968788206577301,-0.19834718108177185,1.1837607622146606
1763367248567037000,1.117036865234375,1.0101255178451538,-0.6182025074958801,1.1543455123901367
1763367248577063700,1.127063720703125,1.015992522239685,0.036327116191387177,0.9153614640235901
1763367248587091000,1.137091064453125,0.8612881302833557,0.34515953063964844,0.9874790906906128
1763367248597118000,1.147117919921875,0.4994918406009674,0.557241678237915,1.348810076713562
1763367248607145000,1.15714501953125,0.07554163038730621,0.494782030582428,1.8062360286712646
1763367248617171700,1.167171630859375,-0.27476951479911804,0.42876359820365906,2.1974663734436035
1763367248627199000,1.177198974609375,-0.511589527130127,0.610225260257721,2.454909324645996
1763367248637226000,1.18722607421875,-0.6382438540458679,0.9724921584129333,2.587888717651367
1763367248647253800,1.197253662109375,-0.6819149255752563,1.1528723239898682,2.5764222145080566
1763367248657281000,1.207281005859375,-0.7792760729789734,1.0715886354446411,2.4060726165771484
1763367248667307800,1.217307861328125,-0.8241599202156067,0.737686038017273,2.102879047393799
1763367248677334800,1.227334716796875,-0.8362120985984802,0.4919436275959015,1.73984956741333
1763367248687362000,1.237362060546875,-0.8863455653190613,0.2300497144460678,1.4542204141616821
1763367248697388800,1.247388916015625,-0.9586663246154785,-0.02629658579826355,1.3450119495391846
1763367248707415800,1.257415771484375,-1.0765693187713623,-0.019829630851745605,1.3150169849395752
1763367248717442800,1.26744287109375,-1.2497605085372925,0.02081313729286194,1.3659582138061523
1763367248727469800,1.2774697265625,-1.420370101928711,0.15433257818222046,1.5524545907974243
1763367248737496800,1.287496826171875,-1.6604058742523193,0.10434664785861969,1.9384366273880005
1763367248747524900,1.29752490234375,-1.9179409742355347,0.16410398483276367,2.368333578109741
1763367248757551900,1.3075517578125,-2.1007959842681885,0.3633750081062317,2.6931588649749756
1763367248767579000,1.317578857421875,-2.2273521423339844,0.4504406750202179,2.8032724857330322
1763367248777606000,1.32760595703125,-2.3359081745147705,0.6763129234313965,2.547539710998535
1763367248787633000,1.3376328125,-2.2955329418182373,1.131747841835022,1.9408977031707764
1763367248797660000,1.347659912109375,-1.9352879524230957,1.1213593482971191,1.003737449645996
1763367248807687000,1.35768701171875,-1.4798823595046997,0.6416305899620056,0.05293352156877518
1763367248817714000,1.3677138671875,-1.279472827911377,0.11302242428064346,-0.43678611516952515
1763367248827741000,1.377740966796875,-1.4243533611297607,-0.07077004015445709,-0.34968796372413635
1763367248837768700,1.387768798828125,-1.709018588066101,0.004479703027755022,-0.023481357842683792
1763367248847796000,1.3977958984375,-1.8950132131576538,0.34018126130104065,0.2726767957210541
1763367248857823000,1.407822998046875,-2.0851075649261475,0.8826749324798584,0.43196845054626465
1763367248867849700,1.417849609375,-2.5052266120910645,1.3732869625091553,0.6168349981307983
1763367248877876700,1.427876708984375,-2.6201987266540527,1.8102322816848755,0.9227943420410156
1763367248887904000,1.437904052734375,-2.4941141605377197,2.01705002784729,1.3051939010620117
1763367248897930800,1.4479306640625,-2.126676082611084,2.025132894515991,1.6341230869293213
1763367248907957800,1.457957763671875,-1.6843007802963257,1.9612892866134644,1.6884441375732422
1763367248917985000,1.467985107421875,-1.4128234386444092,1.6228203773498535,1.4958677291870117
1763367248928011800,1.47801171875,-1.483949065208435,1.086837887763977,1.1760129928588867
1763367248938039800,1.488039794921875,-1.5110341310501099,0.5620005130767822,0.800675094127655
1763367248948067000,1.498067138671875,-1.36903977394104,0.028556810691952705,0.46051833033561707
1763367248958093800,1.50809375,-1.1961755752563477,-0.3688933551311493,0.1826225370168686
1763367248968120800,1.518120849609375,-1.0123242139816284,-0.5817579627037048,-0.00794607400894165
1763367248978147800,1.52814794921875,-0.8022232055664062,-0.5758832693099976,-0.15142734348773956
1763367248988174800,1.5381748046875,-0.6293699145317078,-0.496199369430542,-0.3106287121772766
1763367248998201900,1.548201904296875,-0.5550346970558167,-0.52115398645401,-0.5186735391616821
1763367249008228900,1.558228759765625,-0.6179322004318237,-0.6591163873672485,-0.6671234369277954
1763367249018256000,1.568255859375,-0.779073178768158,-0.8869284987449646,-0.7437010407447815
1763367249028284000,1.578283935546875,-0.8704206347465515,-0.888169527053833,-0.8215564489364624
1763367249038310700,1.588310546875,-0.8130723834037781,-0.6289781928062439,-0.8297973275184631
1763367249048338000,1.598337890625,-0.6760474443435669,-0.3776721954345703,-0.7152267694473267
1763367249058365000,1.608364990234375,-0.5168910622596741,-0.3978440463542938,-0.4769180715084076
1763367249068391700,1.6183916015625,-0.42877212166786194,-0.670220673084259,-0.16312819719314575
1763367249078419000,1.6284189453125,-0.46588408946990967,-0.8811912536621094,0.12696753442287445
1763367249088446000,1.638446044921875,-0.5649118423461914,-0.7259947657585144,0.5573117136955261
1763367249098473000,1.648472900390625,-0.6644349694252014,-0.4234950840473175,0.9048081636428833
1763367249108499700,1.658499755859375,-0.7459580898284912,-0.1886519342660904,0.8810663819313049
1763367249118528000,1.668528076171875,-1.0033563375473022,-0.372351735830307,0.671861469745636
1763367249128554800,1.6785546875,-1.4163380861282349,-1.0043001174926758,0.6024014353752136
1763367249138581800,1.688581787109375,-1.9571679830551147,-1.328682541847229,0.3677351474761963
1763367249148609000,1.698609130859375,-2.4641590118408203,-1.3408839702606201,0.012735502794384956
1763367249158635800,1.7086357421875,-2.578835964202881,-1.203192949295044,-0.2770691514015198
1763367249168662800,1.718662841796875,-2.1753270626068115,-1.0656445026397705,-0.4701363444328308
1763367249178690000,1.72868994140625,-1.483659267425537,-1.0134211778640747,-0.6213181614875793
1763367249188716800,1.738716796875,-0.8298918604850769,-0.9320901036262512,-0.6828765869140625
1763367249198743800,1.748743896484375,-0.5558352470397949,-0.6158823370933533,-0.6051562428474426
1763367249208770800,1.758770751953125,-0.5974977612495422,-0.46512240171432495,-0.4840569496154785
1763367249218798800,1.768798828125,-0.5999193787574768,-0.5834362506866455,-0.4034856855869293
1763367249228825900,1.778825927734375,-0.6209378242492676,-0.6742724180221558,-0.35138413310050964
1763367249238852900,1.788852783203125,-0.784305214881897,-0.5991830229759216,-0.31149718165397644
1763367249248879900,1.7988798828125,-1.0841864347457886,-0.48912495374679565,-0.2288648784160614
1763367249258907000,1.808906982421875,-1.4624900817871094,-0.40645644068717957,-0.13048690557479858
1763367249268934000,1.818933837890625,-1.7683788537979126,-0.2247217893600464,0.0847306028008461
1763367249278961000,1.8289609375,-1.782761573791504,-0.018094582483172417,0.44394227862358093
1763367249288988000,1.83898779296875,-1.6030852794647217,0.14214861392974854,0.6664483547210693
1763367249299015000,1.849014892578125,-1.1861482858657837,0.21073593199253082,0.5797557830810547
1763367249309043000,1.85904296875,-0.6925353407859802,0.16570986807346344,0.3098470866680145
1763367249319070000,1.869070068359375,-0.2299887239933014,0.11255849897861481,-0.03201013058423996
1763367249329096700,1.8790966796875,0.20181646943092346,0.1316203474998474,-0.27394258975982666
1763367249339124000,1.8891240234375,0.6482315063476562,0.36719852685928345,-0.3513713479042053
1763367249349151000,1.89915087890625,1.0458377599716187,0.8139967918395996,-0.23806636035442352
1763367249359177700,1.909177734375,1.303827166557312,1.2487109899520874,-0.0723772644996643
1763367249369204700,1.919204833984375,1.2717965841293335,1.5611857175827026,-0.06975191831588745
1763367249379232000,1.92923193359375,0.7956135272979736,1.804869532585144,-0.2932872772216797
1763367249389258800,1.9392587890625,0.220286026597023,1.8193787336349487,-0.7536210417747498
1763367249399285800,1.94928564453125,-0.475053608417511,1.6580313444137573,-1.305608868598938
1763367249409313800,1.959313720703125,-1.2643444538116455,1.2439335584640503,-1.8933120965957642
1763367249419341300,1.96934130859375,-2.08141827583313,0.9762802124023438,-2.597717761993408
1763367249429368600,1.97936865234375,-2.8296451568603516,0.8770239353179932,-3.3143019676208496
1763367249439395300,1.989395263671875,-3.3791308403015137,0.7396857738494873,-3.9289145469665527
1763367249449422300,1.99942236328125,-3.834674596786499,0.9407126307487488,-4.263054370880127
1763367249459449300,2.009449462890625,-4.109396934509277,0.7329266667366028,-3.9224095344543457
1763367249469476400,2.019476318359375,-3.606761932373047,-0.941509485244751,-2.0555851459503174
1763367249479503400,2.02950341796875,-3.243919849395752,-0.2891623079776764,-1.4130959510803223
1763367249489530400,2.0395302734375,-2.809629440307617,1.0498756170272827,-1.573387622833252
1763367249499557400,2.049557373046875,-1.875493049621582,2.118340015411377,-1.8098711967468262
1763367249509585400,2.05958544921875,-0.7368740439414978,2.5378894805908203,-2.0109009742736816
1763367249519612400,2.0696123046875,-0.27044907212257385,2.518524408340454,-1.772958755493164
1763367249529639400,2.079639404296875,-0.29568731784820557,2.541827917098999,-1.2974693775177002
1763367249539666400,2.08966650390625,-0.5099354386329651,2.646794557571411,-0.8850909471511841
1763367249549693400,2.099693359375,-0.7894895672798157,2.88433575630188,-0.8029633164405823
1763367249559720400,2.109720458984375,-1.104182481765747,3.0197737216949463,-0.9100521802902222
1763367249569747500,2.11974755859375,-1.3296585083007812,2.864457368850708,-1.092519998550415
1763367249579774500,2.1297744140625,-1.4570071697235107,2.625539541244507,-1.2817879915237427
1763367249589801200,2.13980126953125,-1.4409650564193726,2.133030414581299,-1.2527307271957397
1763367249599829500,2.14982958984375,-1.3623485565185547,1.5099105834960938,-1.0349094867706299
1763367249609856300,2.159856201171875,-1.467659831047058,1.1465356349945068,-0.877479076385498
1763367249619883300,2.16988330078125,-1.7335420846939087,1.0296415090560913,-0.772136926651001
1763367249629910500,2.17991064453125,-1.9269315004348755,1.070609450340271,-0.7611463665962219
1763367249639937300,2.189937255859375,-1.9122405052185059,1.07338285446167,-0.592872679233551
1763367249649964300,2.19996435546875,-1.6996155977249146,0.7702972292900085,-0.3442836105823517
1763367249659991600,2.209991455078125,-1.5106145143508911,0.6146700978279114,-0.1697741150856018
1763367249670018600,2.2200185546875,-1.313224196434021,0.7050090432167053,0.1869826763868332
1763367249680045300,2.23004541015625,-1.0100642442703247,0.7258738279342651,0.3277325928211212
1763367249690072300,2.240072265625,-0.657508909702301,0.6197354197502136,0.18940800428390503
1763367249700100400,2.250100341796875,-0.19569866359233856,0.08556070923805237,-0.2934132516384125
1763367249710127400,2.26012744140625,-0.04081054776906967,-0.5958074331283569,-0.7646918296813965
1763367249720154400,2.270154296875,0.22520355880260468,-0.3301403522491455,-0.4994218051433563
1763367249730181400,2.280181396484375,0.41122961044311523,0.06324315071105957,-0.3273472487926483
1763367249740208400,2.29020849609375,0.44095662236213684,0.22982734441757202,-0.39507967233657837
1763367249750235400,2.3002353515625,0.37808552384376526,0.26404044032096863,-0.39671486616134644
1763367249760262400,2.310262451171875,0.27940821647644043,0.22340406477451324,-0.2795988917350769
1763367249770289400,2.320289306640625,0.10991345345973969,0.10505051910877228,-0.15978513658046722
1763367249780316400,2.33031640625,-0.050445329397916794,-0.06662429869174957,-0.06054750084877014
1763367249790343200,2.34034326171875,-0.051481831818819046,-0.1508081555366516,0.10640233755111694
1763367249800371500,2.350371337890625,-0.12874892354011536,-0.33166155219078064,0.20940035581588745
1763367249810398500,2.3603984375,-0.12074985355138779,-0.37448811531066895,0.3130316734313965
1763367249820425500,2.370425537109375,-0.06909624487161636,-0.2297879308462143,0.4596346914768219
1763367249830452500,2.380452392578125,-0.0919451043009758,-0.12081403285264969,0.5702965259552002
1763367249840479500,2.3904794921875,-0.13942793011665344,-0.04349767789244652,0.7022665143013
1763367249850506200,2.40050634765625,-0.17439603805541992,0.028307272121310234,0.8488261103630066
1763367249860533500,2.410533447265625,-0.18127258121967316,0.09406817704439163,0.9702665209770203
1763367249870560500,2.420560546875,-0.16301316022872925,0.1647482067346573,1.0526338815689087
1763367249880587300,2.430587158203125,-0.12365882098674774,0.18050771951675415,1.1045830249786377
1763367249890614500,2.440614501953125,-0.07411257922649384,0.108040452003479,1.155935525894165
1763367249900642300,2.450642333984375,0.005711948033422232,0.015164039097726345,1.1505625247955322
1763367249910669300,2.46066943359375,0.15117353200912476,-0.10744176805019379,1.030189037322998
1763367249920696600,2.470696533203125,0.29415494203567505,-0.17192675173282623,0.7193405628204346
1763367249930723300,2.480723388671875,0.38213324546813965,-0.11940229684114456,0.23369798064231873
1763367249940750300,2.490750244140625,0.4415004253387451,-0.05909048393368721,-0.35203686356544495
1763367249950777300,2.50077734375,0.5235918760299683,-0.0531228743493557,-0.87627774477005
1763367249960804400,2.510804443359375,0.5898390412330627,0.0901796966791153,-1.1515012979507446
1763367249970831400,2.520831298828125,0.577873706817627,0.38214123249053955,-1.2103906869888306
1763367249980858400,2.5308583984375,0.5043609142303467,0.7990990281105042,-1.0898022651672363
1763367249990885400,2.540885498046875,0.4218079745769501,1.3069782257080078,-0.8727096319198608
1763367250000913400,2.550913330078125,0.3082054853439331,1.548659086227417,-0.6216313242912292
1763367250010940400,2.5609404296875,0.22958604991436005,1.523697018623352,-0.2945469319820404
1763367250020967400,2.570967529296875,0.15790946781635284,1.3268542289733887,0.12413047254085541
1763367250030994400,2.580994384765625,-0.026139991357922554,1.0010881423950195,0.5430246591567993
1763367250041021400,2.591021484375,-0.2128227949142456,0.6850667595863342,0.7723108530044556
1763367250051048400,2.60104833984375,-0.26934465765953064,0.3869551718235016,0.6596215963363647
1763367250061075500,2.611075439453125,-0.08119019120931625,0.34640082716941833,0.22833091020584106
1763367250071102500,2.6211025390625,0.27317720651626587,0.49772801995277405,-0.13977760076522827
1763367250081129200,2.631129150390625,0.585707426071167,0.4934869408607483,-0.3449379503726959
1763367250091156500,2.641156494140625,0.7556573152542114,0.3838629722595215,-0.7442499399185181
1763367250101184300,2.651184326171875,1.059470772743225,0.303727924823761,-0.971336841583252
1763367250111211300,2.661211181640625,1.2178014516830444,-0.10816136002540588,-0.5426997542381287
1763367250121238500,2.671238525390625,1.003382682800293,-0.7868562340736389,0.3051964044570923
1763367250131265300,2.681265380859375,0.6131531596183777,-1.6160122156143188,1.0256078243255615
1763367250141292300,2.691292236328125,0.20669299364089966,-1.903143048286438,1.3808050155639648
1763367250151319600,2.701319580078125,-0.2531907260417938,-1.3636753559112549,1.2953513860702515
1763367250161346600,2.7113466796875,-0.7141599059104919,-0.8612255454063416,0.8654003143310547
1763367250171373300,2.721373291015625,-0.9390159249305725,-1.5185980796813965,0.6292250752449036
1763367250181400300,2.731400390625,-0.8822644948959351,-2.4488508701324463,0.8479430079460144
1763367250191427600,2.741427490234375,-0.7209129333496094,-2.76955246925354,1.2208337783813477
1763367250201455400,2.751455322265625,-0.691502034664154,-2.1619129180908203,1.2903385162353516
1763367250211482400,2.761482421875,-0.7325389385223389,-0.9897254705429077,1.023483157157898
1763367250221509400,2.77150927734375,-0.6675053238868713,-0.19202031195163727,0.7403576970100403
1763367250231536400,2.781536376953125,-0.5634593963623047,-0.23393073678016663,0.611636221408844
1763367250241563400,2.7915634765625,-0.4838132858276367,-0.7328092455863953,0.6467388272285461
1763367250251590400,2.80159033203125,-0.3562433421611786,-1.2071400880813599,0.8529103398323059
1763367250261617400,2.811617431640625,-0.17862673103809357,-1.4688739776611328,1.1455392837524414
1763367250271644400,2.82164453125,0.015677230432629585,-1.5886019468307495,1.444270372390747
1763367250281671200,2.831671142578125,0.1644083857536316,-1.6225072145462036,1.6691734790802002
1763367250291699500,2.841699462890625,0.20623306930065155,-1.6462090015411377,1.751388430595398
1763367250301726500,2.8517265625,0.13977308571338654,-1.6606580018997192,1.7088333368301392
1763367250311753500,2.86175341796875,0.003953995183110237,-1.6492122411727905,1.5434355735778809
1763367250321780500,2.871780517578125,-0.17033737897872925,-1.6835659742355347,1.3312979936599731
1763367250331807500,2.881807373046875,-0.35125231742858887,-1.8146110773086548,1.1338874101638794
1763367250341834200,2.891834228515625,-0.5343150496482849,-2.013341188430786,0.9961210489273071
1763367250351861500,2.901861572265625,-0.7105066180229187,-2.223923444747925,0.937186062335968
1763367250361888500,2.911888427734375,-0.899290919303894,-2.3428823947906494,0.94742351770401
1763367250371915300,2.921915283203125,-1.0725516080856323,-2.2548019886016846,1.0138169527053833
1763367250381942500,2.931942626953125,-1.2096456289291382,-1.9565980434417725,1.1376440525054932
1763367250391970300,2.94197021484375,-1.3205018043518066,-1.5560991764068604,1.2732871770858765
1763367250401997300,2.951997314453125,-1.4027572870254517,-1.1365727186203003,1.408204436302185
1763367250412024600,2.962024658203125,-1.444964051246643,-0.7118818759918213,1.5499136447906494
1763367250422051000,2.972051025390625,-1.4607465267181396,-0.3308517038822174,1.6585807800292969
1763367250432077800,2.982077880859375,-1.6644428968429565,0.006542054936289787,1.6152076721191406
1763367250442104800,2.992104736328125,-2.1648972034454346,0.19884039461612701,1.288359522819519
1763367250452132000,3.002132080078125,-1.8522309064865112,0.6805574893951416,0.6214009523391724
1763367250462158800,3.012158935546875,-0.4542173147201538,1.2078274488449097,0.4033418595790863
1763367250472185900,3.022185791015625,0.23887649178504944,1.0001347064971924,0.8534752130508423
1763367250482214000,3.0322138671875,0.22082719206809998,0.2522202730178833,1.2085323333740234
1763367250492241000,3.042240966796875,0.06865096837282181,-0.7365110516548157,1.2571030855178833
1763367250502268000,3.052267822265625,0.06527194380760193,-1.4027916193008423,1.0603983402252197
1763367250512295000,3.062294921875,0.050749994814395905,-1.6046397686004639,0.8163198828697205
1763367250522322000,3.072322021484375,-0.034438665956258774,-1.6374603509902954,0.6276037096977234
1763367250532349000,3.082348876953125,-0.1347881704568863,-1.6382960081100464,0.5322665572166443
1763367250542375700,3.092375732421875,-0.24072979390621185,-1.5562245845794678,0.5143709182739258
1763367250552403000,3.10240283203125,-0.3583458960056305,-1.4029481410980225,0.5648740530014038
1763367250562430000,3.112429931640625,-0.40704819560050964,-1.1716606616973877,0.6632158160209656
1763367250572457700,3.122457763671875,-0.48181644082069397,-0.905356764793396,0.7764451503753662
1763367250582485000,3.132485107421875,-0.6003715991973877,-0.6448487639427185,0.8314527273178101
1763367250592512000,3.142511962890625,-0.6764418482780457,-0.4031924605369568,0.8355202078819275
1763367250602538800,3.152538818359375,-0.7064015865325928,-0.19266372919082642,0.8317291736602783
1763367250612566000,3.16256591796875,-0.7061893343925476,-0.02220357209444046,0.8875455856323242
1763367250622593000,3.172593017578125,-0.6662209033966064,0.0653262734413147,1.0080064535140991
1763367250632619800,3.182619873046875,-0.5992578268051147,0.0018032263033092022,1.1235389709472656
1763367250642646800,3.192646728515625,-0.4648217558860779,-0.2559122145175934,1.113577127456665
1763367250652674000,3.202674072265625,-0.3101418912410736,-0.6548452377319336,0.9839439988136292
1763367250662701800,3.212701904296875,-0.17097467184066772,-1.0605804920196533,0.7546131014823914
1763367250672729000,3.22272900390625,-0.004047738388180733,-1.283334493637085,0.48508334159851074
1763367250682755800,3.232755859375,0.14279763400554657,-1.2686537504196167,0.22966940701007843
1763367250692782800,3.242782958984375,0.26638615131378174,-1.0939130783081055,0.022648321464657784
1763367250702809900,3.252809814453125,0.2364295870065689,-1.0144004821777344,-0.09740804880857468
1763367250712836900,3.2628369140625,0.17248095571994781,-1.0785315036773682,-0.19267171621322632
1763367250722863900,3.27286376953125,0.23370888829231262,-1.1811391115188599,-0.287739098072052
1763367250732891000,3.282890869140625,0.416586309671402,-1.2011377811431885,-0.3519737422466278
1763367250742918000,3.29291796875,0.5237154364585876,-1.2168073654174805,-0.2885148823261261
1763367250752946000,3.30294580078125,0.4949530065059662,-1.132195234298706,-0.17602109909057617
1763367250762973000,3.312972900390625,0.41025596857070923,-0.8367148637771606,-0.16520920395851135
1763367250773000000,3.323,0.4222487211227417,-0.32150691747665405,-0.32797813415527344
1763367250783027000,3.33302685546875,0.46736931800842285,0.3174256384372711,-0.5842634439468384
1763367250793054000,3.343053955078125,0.5830128192901611,0.8805505037307739,-0.857606053352356
1763367250803080700,3.353080810546875,0.7087255120277405,1.128170371055603,-1.0330761671066284
1763367250813108000,3.36310791015625,0.7366716265678406,0.8936111927032471,-1.1039329767227173
1763367250823135000,3.373135009765625,0.6067831516265869,0.4262884557247162,-1.2043898105621338
1763367250833161700,3.38316162109375,0.3594529628753662,0.07835233211517334,-1.4583264589309692
1763367250843190000,3.39318994140625,0.04801865667104721,-0.05648564547300339,-1.870629906654358
1763367250853216800,3.403216796875,-0.2978154420852661,-0.04676670581102371,-2.4242324829101562
1763367250863243800,3.413243896484375,-0.6387650370597839,-0.047447942197322845,-2.9840903282165527
1763367250873271000,3.42327099609375,-0.8140343427658081,-0.3759344816207886,-3.378258228302002
1763367250883298000,3.433298095703125,-0.7475922107696533,-0.9033104181289673,-3.4474306106567383
1763367250893324800,3.44332470703125,-0.5543097853660583,-1.4381237030029297,-3.1852967739105225
1763367250903351800,3.453351806640625,-0.27717673778533936,-1.889613151550293,-2.7389166355133057
1763367250913379000,3.463379150390625,-0.1446000635623932,-2.188694477081299,-2.260143756866455
1763367250923405800,3.47340576171875,-0.174388587474823,-2.263686418533325,-1.9808083772659302
1763367250933434000,3.48343408203125,-0.2142324000597,-2.013005256652832,-1.987497091293335
1763367250943460900,3.4934609375,-0.26657044887542725,-1.504883050918579,-2.132039785385132
1763367250953488000,3.50348779296875,-0.3801686465740204,-0.8541172742843628,-2.2526862621307373
1763367250963515000,3.513514892578125,-0.4572381377220154,-0.11063356697559357,-2.2845215797424316
1763367250973542000,3.5235419921875,-0.5064248442649841,0.5272089242935181,-2.2328362464904785
1763367250983569000,3.53356884765625,-0.45262953639030457,0.9469580054283142,-2.0248448848724365
1763367250993596000,3.543595947265625,-0.3474953770637512,1.1094324588775635,-1.8305128812789917
1763367251003623000,3.553622802734375,-0.20559071004390717,0.9667990803718567,-1.7448855638504028
1763367251013650000,3.56364990234375,-0.023800937458872795,0.7176952958106995,-1.749578833580017
1763367251023678000,3.573677978515625,0.13688728213310242,0.522046685218811,-1.7960201501846313
1763367251033705000,3.583705078125,0.26447799801826477,0.36128443479537964,-1.8235883712768555
1763367251043732000,3.59373193359375,0.35501909255981445,0.3167681097984314,-1.8064600229263306
1763367251053759000,3.603759033203125,0.4544154405593872,0.4095318615436554,-1.7486083507537842
1763367251063785700,3.61378564453125,0.528399646282196,0.7045989036560059,-1.6397732496261597
1763367251073813000,3.62381298828125,0.6079658269882202,0.926867663860321,-1.509974718093872
1763367251083840000,3.633840087890625,0.674690842628479,1.048880696296692,-1.3621450662612915
1763367251093866800,3.64386669921875,0.6941455006599426,1.1116758584976196,-1.2262040376663208
1763367251103894000,3.65389404296875,0.6756128072738647,1.1696856021881104,-1.1179412603378296
1763367251113921800,3.663921875,0.6716715693473816,1.1967194080352783,-1.0642529726028442
1763367251123948800,3.67394873046875,0.662076473236084,1.369742512702942,-1.0168638229370117
1763367251133976000,3.68397607421875,0.6504954695701599,1.4903017282485962,-0.9537373781204224
1763367251144002800,3.6940029296875,0.6207676529884338,1.4737787246704102,-0.8711050748825073
1763367251154029800,3.70402978515625,0.6383570432662964,1.3806029558181763,-0.761296808719635
1763367251164057000,3.71405712890625,0.6765789985656738,1.172831654548645,-0.6355963945388794
1763367251174083800,3.724083740234375,0.6789217591285706,0.9628254175186157,-0.4977551996707916
1763367251184110800,3.73411083984375,0.6731568574905396,0.8061497807502747,-0.3612857758998871
1763367251194139000,3.744138916015625,0.6433203816413879,0.7006025910377502,-0.22341658174991608
1763367251204166000,3.754165771484375,0.5766782164573669,0.6271765828132629,-0.07751902937889099
1763367251214193000,3.76419287109375,0.4777607023715973,0.6620929837226868,0.07524335384368896
1763367251224220000,3.774219970703125,0.40367209911346436,0.7296520471572876,0.21972143650054932
1763367251234247000,3.784246826171875,0.3538917601108551,0.8017795085906982,0.35844549536705017
1763367251244274000,3.79427392578125,0.31772708892822266,0.7694186568260193,0.49527445435523987
1763367251254301000,3.804301025390625,0.25645628571510315,0.6925779581069946,0.6322264671325684
1763367251264328000,3.814327880859375,0.17827919125556946,0.5715228915214539,0.7907944917678833
1763367251274355000,3.82435498046875,0.10875418037176132,0.3822392523288727,0.9786531329154968
1763367251284382700,3.8343828125,0.04795447736978531,0.23785197734832764,1.1661078929901123
1763367251294410000,3.844409912109375,-0.004745486658066511,0.17298643290996552,1.3260784149169922
1763367251304437000,3.85443701171875,-0.05769259110093117,0.13609179854393005,1.420155644416809
1763367251314463700,3.864463623046875,-0.07538929581642151,0.10084884613752365,1.407897710800171
1763367251324490800,3.87449072265625,-0.07436850666999817,0.13476261496543884,1.2666583061218262
1763367251334518000,3.88451806640625,-0.061047639697790146,0.31572094559669495,0.987918496131897
1763367251344544800,3.894544677734375,-0.06017891690135002,0.5929142236709595,0.5466580390930176
1763367251354571800,3.90457177734375,-0.04291817173361778,0.8273522853851318,-0.01570359617471695
1763367251364599000,3.91459912109375,0.06186283379793167,0.9006137251853943,-0.5077494978904724
1763367251374626800,3.924626708984375,0.2880405783653259,0.7523949146270752,-0.7620187997817993
1763367251384653800,3.93465380859375,0.5224922299385071,0.5844024419784546,-0.8266622424125671
1763367251394681000,3.94468115234375,0.7423446774482727,0.607525110244751,-0.8177105784416199
1763367251404707800,3.954707763671875,0.9002134203910828,0.8312926888465881,-0.7530646920204163
1763367251414734800,3.96473486328125,0.9921979308128357,1.086164951324463,-0.6325319409370422
1763367251424762000,3.97476220703125,0.9738796353340149,1.3077337741851807,-0.4232940077781677
1763367251434788900,3.984788818359375,0.9182273149490356,1.398696780204773,-0.11301097273826599
1763367251444816000,3.99481591796875,0.8213286995887756,1.265181064605713,0.17600299417972565
1763367251454844000,4.004843994140625,0.5007347464561462,1.1050776243209839,0.23871563374996185
1763367251464871000,4.014870849609375,0.22201575338840485,0.816815197467804,0.013042032718658447
1763367251474898000,4.02489794921875,0.0578843392431736,0.7277953028678894,-0.2332894504070282
1763367251484924700,4.034924560546875,0.06295686215162277,0.807475209236145,-0.2539190948009491
1763367251494952000,4.044951904296875,0.05516498535871506,1.0989328622817993,-0.16864360868930817
1763367251504979000,4.05497900390625,-0.03292998671531677,1.4514299631118774,-0.43532562255859375
1763367251515006000,4.065005859375,0.08583687990903854,1.9286437034606934,-0.9769079089164734
1763367251525033000,4.075032958984375,0.3078523576259613,1.9375990629196167,-1.260913610458374
1763367251535060000,4.08506005859375,0.48634833097457886,1.2420176267623901,-0.9490683078765869
1763367251545087700,4.095087646484375,0.63307785987854,0.304399311542511,-0.047874849289655685
1763367251555115000,4.105114990234375,0.6756085157394409,-0.4686473608016968,1.101948618888855
1763367251565142000,4.11514208984375,0.631956160068512,-1.1030118465423584,1.9373687505722046
1763367251575168800,4.125168701171875,0.33661770820617676,-1.6880393028259277,1.9959228038787842
1763367251585196000,4.135196044921875,-0.03434279188513756,-2.219961166381836,1.2550127506256104
1763367251595223000,4.14522314453125,-0.2520388960838318,-2.9377899169921875,1.4089362621307373
1763367251605249800,4.155249755859375,-0.5370434522628784,-3.289400815963745,2.194155216217041
1763367251615276800,4.16527685546875,-0.5453003644943237,-2.878323793411255,2.333683490753174
1763367251625304000,4.175303955078125,-0.4457165002822876,-1.902449369430542,1.732168197631836
1763367251635331800,4.185331787109375,-0.4313229024410248,-0.6635569334030151,1.0022492408752441
1763367251645358800,4.19535888671875,-0.4132261872291565,0.22863610088825226,0.5730305314064026
1763367251655385900,4.2053857421875,-0.37339410185813904,0.23788046836853027,0.5597048401832581
1763367251665412900,4.215412841796875,-0.39743444323539734,-0.32137802243232727,0.7537409067153931
1763367251675439900,4.22543994140625,-0.436236709356308,-0.8655031323432922,0.9603209495544434
1763367251685467000,4.235466796875,-0.4514731764793396,-1.1327824592590332,1.1811401844024658
1763367251695494000,4.245493896484375,-0.43513867259025574,-1.1056733131408691,1.4672446250915527
1763367251705521000,4.25552099609375,-0.35663536190986633,-0.9542286992073059,1.774242877960205
1763367251715548000,4.2655478515625,-0.234014093875885,-0.7541989684104919,2.0752322673797607
1763367251725576000,4.275575927734375,-0.06409989297389984,-0.7359328866004944,2.2077159881591797
1763367251735603000,4.28560302734375,0.03521524369716644,-0.8242393136024475,2.1223273277282715
1763367251745629700,4.295629638671875,0.003162503708153963,-0.8770628571510315,1.8804367780685425
1763367251755657000,4.305656982421875,-0.13470028340816498,-0.8470649719238281,1.5691778659820557
1763367251765684000,4.31568408203125,-0.34263938665390015,-0.715863049030304,1.2444038391113281
1763367251775710700,4.325710693359375,-0.5512128472328186,-0.42188093066215515,0.9242436289787292
1763367251785738000,4.335738037109375,-0.6742324829101562,0.08121363073587418,0.6475611925125122
1763367251795765000,4.345764892578125,-0.6302551627159119,0.6098814606666565,0.4585161805152893
1763367251805792800,4.355792724609375,-0.51143479347229,1.0544123649597168,0.3962509334087372
1763367251815820000,4.365820068359375,-0.42712709307670593,1.2954974174499512,0.4705613851547241
1763367251825846800,4.3758466796875,-0.3441145122051239,1.2562557458877563,0.6645542979240417
1763367251835873800,4.385873779296875,-0.2533220052719116,0.9769780039787292,0.8727157711982727
1763367251845901000,4.395901123046875,-0.1775398999452591,0.6049069166183472,1.0212490558624268
1763367251855928000,4.405927978515625,-0.11151667684316635,0.3408587872982025,1.1080838441848755
1763367251865954800,4.415954833984375,-0.06228814274072647,0.21982291340827942,1.120090126991272
1763367251875981800,4.42598193359375,0.016276441514492035,0.20894655585289001,1.0913211107254028
1763367251886009000,4.436009033203125,0.10477621108293533,0.19859831035137177,1.0606003999710083
1763367251896036900,4.446036865234375,0.16578151285648346,0.11683420836925507,1.0294606685638428
1763367251906064000,4.45606396484375,0.15469130873680115,-0.034633077681064606,1.0387239456176758
1763367251916091000,4.4660908203125,0.13124030828475952,-0.23136530816555023,1.065691351890564
1763367251926118000,4.476117919921875,0.10118147730827332,-0.4463188946247101,1.080397367477417
1763367251936145000,4.486144775390625,0.044614072889089584,-0.6231597065925598,1.0848133563995361
1763367251946172000,4.496171875,-0.04694487154483795,-0.7180220484733582,1.0946893692016602
1763367251956199000,4.506198974609375,-0.13634532690048218,-0.7576160430908203,1.0627466440200806
1763367251966226000,4.516225830078125,-0.21745428442955017,-0.7754083871841431,0.952875554561615
1763367251976254000,4.52625390625,-0.30160486698150635,-0.768385112285614,0.7986356616020203
1763367251986281000,4.536281005859375,-0.40045127272605896,-0.7032747864723206,0.6712620258331299
1763367251996308000,4.546307861328125,-0.5000231266021729,-0.6092644333839417,0.5825153589248657
1763367252006334700,4.556334716796875,-0.5640878677368164,-0.4839107394218445,0.5588462352752686
1763367252016362000,4.566362060546875,-0.6012187600135803,-0.26038259267807007,0.6511660218238831
1763367252026389000,4.576388916015625,-0.6459435820579529,0.1145193874835968,0.8918279409408569
1763367252036415700,4.586415771484375,-0.5854823589324951,0.5255319476127625,1.1515508890151978
1763367252046443000,4.596443115234375,-0.4118189811706543,0.792974054813385,1.325632929801941
1763367252056470000,4.606469970703125,-0.19542010128498077,0.7874413132667542,1.4168919324874878
1763367252066497800,4.616497802734375,-0.025977272540330887,0.4684135615825653,1.4336555004119873
1763367252076525000,4.626525146484375,0.07114182412624359,-0.04507772997021675,1.2988574504852295
1763367252086551800,4.6365517578125,0.17274008691310883,-0.4680827856063843,0.9814571738243103
1763367252096578800,4.646578857421875,0.290542870759964,-0.6950477361679077,0.5873202085494995
1763367252106606000,4.656606201171875,0.4113289415836334,-0.7209951877593994,0.31246015429496765
1763367252116632800,4.6666328125,0.48220500349998474,-0.6964815855026245,0.20578458905220032
1763367252126659800,4.676659912109375,0.4631492793560028,-0.9159108996391296,0.09033256024122238
1763367252136686800,4.686686767578125,0.5053896903991699,-1.305832862854004,-0.09269584715366364
1763367252146715000,4.69671484375,0.5905508995056152,-1.621757984161377,-0.3016943335533142
1763367252156742000,4.706741943359375,0.5749999284744263,-1.656636118888855,-0.48328277468681335
1763367252166769000,4.716768798828125,0.5206993818283081,-1.3543699979782104,-0.6497614979743958
1763367252176796000,4.7267958984375,0.5288177728652954,-0.8472468852996826,-0.8153406381607056
1763367252186823000,4.736822998046875,0.5570808053016663,-0.27066904306411743,-1.0235347747802734
1763367252196850000,4.746849853515625,0.5802271366119385,0.20500481128692627,-1.1993615627288818
1763367252206877000,4.756876953125,0.5941440463066101,0.6333750486373901,-1.317999005317688
1763367252216904000,4.766904052734375,0.5931083559989929,0.9915254712104797,-1.2948845624923706
1763367252226931000,4.776930908203125,0.5619131326675415,1.1391501426696777,-1.1802083253860474
1763367252236959000,4.786958984375,0.5427269339561462,0.928883969783783,-1.088033676147461
1763367252246986000,4.796986083984375,0.45382848381996155,0.6342278122901917,-1.0480021238327026
1763367252257012700,4.8070126953125,0.287105530500412,0.49329227209091187,-1.1542819738388062
1763367252267040000,4.8170400390625,0.023917051032185555,0.6921252012252808,-1.5809803009033203
1763367252277067000,4.82706689453125,-0.36257898807525635,0.8936854600906372,-2.4839916229248047
1763367252287093800,4.83709375,-0.6863112449645996,0.5757319927215576,-3.2118043899536133
1763367252297120800,4.847120849609375,-0.7782307863235474,-0.1102314293384552,-3.465482473373413
1763367252307148000,4.85714794921875,-0.6919462084770203,-0.8340591788291931,-3.346763849258423
1763367252317175800,4.86717578125,-0.5442891120910645,-1.2872096300125122,-3.0199356079101562
1763367252327202800,4.877202880859375,-0.3832501769065857,-1.4649308919906616,-2.6272075176239014
1763367252337230000,4.88722998046875,-0.3134785592556,-1.4832075834274292,-2.3390567302703857
1763367252347256800,4.8972568359375,-0.2740616500377655,-1.2910658121109009,-2.2474029064178467
1763367252357283800,4.907283935546875,-0.3199516236782074,-0.8381388783454895,-2.27052903175354
1763367252367311000,4.91731103515625,-0.4209781289100647,-0.3191353678703308,-2.3269269466400146
1763367252377337900,4.927337890625,-0.46781647205352783,0.1764884889125824,-2.336097478866577
1763367252387364900,4.93736474609375,-0.4488545060157776,0.5479578971862793,-2.2376694679260254
1763367252397392000,4.947391845703125,-0.36003246903419495,0.8795022964477539,-2.049360513687134
1763367252407419000,4.9574189453125,-0.2364242523908615,0.998744547367096,-1.9128838777542114
1763367252417447000,4.967447021484375,-0.0490996353328228,0.7418456077575684,-1.8730989694595337
1763367252427474000,4.977473876953125,0.06781154125928879,0.35390642285346985,-1.8847774267196655
1763367252437501000,4.9875009765625,0.14102955162525177,0.04532327130436897,-1.8993134498596191
1763367252447528000,4.99752783203125,0.1681828796863556,-0.04982215166091919,-1.9105764627456665
1763367252457555000,5.007554931640625,0.1631726771593094,0.031383223831653595,-1.877791404724121
1763367252467582000,5.01758203125,0.23176132142543793,0.4247342348098755,-1.7626229524612427
1763367252477609000,5.02760888671875,0.32454240322113037,0.9626903533935547,-1.6183079481124878
1763367252487636000,5.037635986328125,0.3746974468231201,1.3066881895065308,-1.5936819314956665
1763367252497664000,5.0476640625,0.4036606550216675,1.3600279092788696,-1.6216163635253906
1763367252507691000,5.05769091796875,0.42399415373802185,1.2702807188034058,-1.5548841953277588
1763367252517718000,5.067718017578125,0.47398436069488525,1.1812288761138916,-1.4051772356033325
1763367252527745000,5.0777451171875,0.5279927253723145,1.1213154792785645,-1.2221951484680176
1763367252537772000,5.08777197265625,0.5731972455978394,1.014726161956787,-1.041028618812561
1763367252547798800,5.097798828125,0.6067160367965698,0.907070517539978,-0.8686102032661438
1763367252557826000,5.107825927734375,0.6442956328392029,0.7970263361930847,-0.7099825143814087
1763367252567853000,5.11785302734375,0.6664584279060364,0.6943444013595581,-0.541106641292572
1763367252577879800,5.1278798828125,0.6835365295410156,0.5296316146850586,-0.3826406002044678
1763367252587908000,5.137908203125,0.6852944493293762,0.5204277634620667,-0.22848936915397644
1763367252597934800,5.147934814453125,0.6618703603744507,0.5355566143989563,-0.08036008477210999
1763367252607961900,5.1579619140625,0.6295579671859741,0.49458175897598267,0.09420906007289886
1763367252617989000,5.167989013671875,0.5753716826438904,0.5241966247558594,0.25853168964385986
1763367252628015900,5.178015869140625,0.5112017393112183,0.48055168986320496,0.4311023950576782
1763367252638043000,5.18804296875,0.4539046585559845,0.48930203914642334,0.6228004693984985
1763367252648070100,5.198070068359375,0.3972562849521637,0.4695184826850891,0.8504855632781982
1763367252658097200,5.20809716796875,0.3212414085865021,0.5235601663589478,1.0587072372436523
1763367252668124000,5.2181240234375,0.28267431259155273,0.4493391811847687,1.2407358884811401
1763367252678152200,5.228152099609375,0.23845598101615906,0.23476484417915344,1.4134373664855957
1763367252688179000,5.238178955078125,0.16110233962535858,0.059538960456848145,1.5737537145614624
1763367252698206000,5.2482060546875,0.12386255711317062,-0.05735623463988304,1.6664280891418457
1763367252708233000,5.25823291015625,0.09036558121442795,-0.028010329231619835,1.7176544666290283
1763367252718260000,5.268260009765625,0.05582491680979729,0.10360788553953171,1.7166448831558228
1763367252728287000,5.278286865234375,0.04007711261510849,0.3267911672592163,1.6251953840255737
1763367252738314000,5.28831396484375,0.08405549079179764,0.4537062346935272,1.3575849533081055
1763367252748341000,5.298341064453125,0.20743946731090546,0.4833109974861145,0.9228388667106628
1763367252758368000,5.308367919921875,0.29756245017051697,0.543652355670929,0.3487846255302429
1763367252768395800,5.318395751953125,0.32870784401893616,0.736344039440155,-0.29167500138282776
1763367252778423000,5.328423095703125,0.3725147247314453,1.0216466188430786,-0.7946281433105469
1763367252788450000,5.338449951171875,0.5130225419998169,1.1032326221466064,-1.007721185684204
1763367252798477000,5.34847705078125,0.685006320476532,1.0720597505569458,-1.013846755027771
1763367252808503800,5.35850390625,0.8536238074302673,0.991196870803833,-0.9362902045249939
1763367252818531000,5.368531005859375,0.9703823924064636,0.9371293783187866,-0.8256734013557434
1763367252828558000,5.37855810546875,0.9737582206726074,0.9424120187759399,-0.660053014755249
1763367252838584800,5.388584716796875,0.865304172039032,0.9135721325874329,-0.39612922072410583
1763367252848612000,5.398612060546875,0.6722249984741211,0.7648095488548279,-0.03622777760028839
1763367252858640000,5.408639892578125,0.3615470230579376,0.5841691493988037,0.267221063375473
1763367252868667000,5.4186669921875,-0.05697513371706009,0.5289991497993469,0.2777535915374756
1763367252878694100,5.428694091796875,-0.3105381727218628,0.7500830292701721,0.012493154965341091
1763367252888721000,5.438720947265625,-0.23736248910427094,1.1156184673309326,-0.16054441034793854
1763367252898748000,5.448747802734375,-0.15426254272460938,1.687023639678955,-0.049376338720321655
1763367252908775200,5.458775146484375,-0.13887318968772888,1.969562292098999,-0.08317291736602783
1763367252918802000,5.468802001953125,-0.16562411189079285,2.0287599563598633,-0.3111538887023926
1763367252928829000,5.478828857421875,-0.13332130014896393,2.0866599082946777,-0.7398445010185242
1763367252938856000,5.48885595703125,0.03706587478518486,1.761995792388916,-1.061599612236023
1763367252948884000,5.498884033203125,0.37665221095085144,0.8069093227386475,-0.9585121273994446
1763367252958911000,5.508910888671875,0.7607082724571228,-0.2442917674779892,-0.24451041221618652
1763367252968938000,5.51893798828125,0.9959567189216614,-1.0307570695877075,0.8939784169197083
1763367252978965000,5.528965087890625,0.9810715317726135,-1.5078577995300293,1.9333769083023071
1763367252988992000,5.538991943359375,0.7169914245605469,-1.9612857103347778,2.201122760772705
1763367252999019000,5.54901904296875,0.24981889128684998,-2.3111979961395264,1.415366291999817
1763367253009046000,5.5590458984375,-0.21230587363243103,-2.680570602416992,1.1416747570037842
1763367253019073000,5.569072998046875,-0.709140419960022,-2.9587979316711426,1.7874796390533447
1763367253029100000,5.57910009765625,-0.842207670211792,-2.608163356781006,2.162384510040283
1763367253039126800,5.589126708984375,-0.726323127746582,-1.9252805709838867,1.8423572778701782
1763367253049155000,5.599155029296875,-0.6299638152122498,-1.0370432138442993,1.2909468412399292
1763367253059181800,5.609181884765625,-0.49530720710754395,-0.24513891339302063,0.9191530346870422
1763367253069209000,5.619208984375,-0.406279057264328,0.1616773158311844,0.879880964756012
1763367253079236000,5.629236083984375,-0.4232463240623474,-0.0012173309223726392,1.035880446434021
1763367253089262800,5.639262939453125,-0.4595111310482025,-0.35678741335868835,1.2907243967056274
1763367253099289900,5.649289794921875,-0.40383243560791016,-0.5839499831199646,1.5674256086349487
1763367253109317000,5.659317138671875,-0.24559751152992249,-0.5952314138412476,1.8151363134384155
1763367253119343900,5.66934375,-0.07008374482393265,-0.7466816306114197,1.9901847839355469
1763367253129371000,5.679370849609375,0.06167374923825264,-1.126011610031128,2.115583896636963
1763367253139398100,5.689398193359375,0.09465193748474121,-1.417830467224121,2.158667802810669
1763367253149426000,5.699426025390625,0.05722653865814209,-1.625839352607727,2.0821022987365723
1763367253159453000,5.709452880859375,-0.0006269080913625658,-1.6884715557098389,1.929654836654663
1763367253169480200,5.719480224609375,-0.09020525962114334,-1.570088505744934,1.743971347808838
1763367253179507000,5.7295068359375,-0.16604569554328918,-1.3690693378448486,1.5206122398376465
1763367253189534000,5.739533935546875,-0.264087051153183,-1.0669392347335815,1.2378634214401245
1763367253199561000,5.74956103515625,-0.34304365515708923,-0.6130067110061646,0.9091778993606567
1763367253209588000,5.759587890625,-0.37339410185813904,-0.07337728142738342,0.5933307409286499
1763367253219615000,5.769614990234375,-0.36912211775779724,0.48545217514038086,0.3670307397842407
1763367253229642000,5.77964208984375,-0.3564944565296173,0.9959655404090881,0.31893351674079895
1763367253239670000,5.789669921875,-0.30475351214408875,1.2663674354553223,0.4484241306781769
1763367253249697000,5.799697021484375,-0.23832282423973083,1.1381710767745972,0.6681226491928101
1763367253259723800,5.809723876953125,-0.16294310986995697,0.7286347150802612,0.8676504492759705
1763367253269751000,5.8197509765625,-0.12088913470506668,0.19014304876327515,0.9816078543663025
1763367253279778000,5.829778076171875,-0.04318422079086304,-0.34496697783470154,1.004631757736206
1763367253289805000,5.83980517578125,0.05489520728588104,-0.7092344164848328,0.9881701469421387
1763367253299831800,5.849831787109375,0.13515861332416534,-0.9088071584701538,0.9671666026115417
1763367253309859000,5.859859130859375,0.17352598905563354,-1.0216543674468994,0.9436245560646057
1763367253319886000,5.869885986328125,0.20247134566307068,-1.16004478931427,0.9121443629264832
1763367253329912800,5.879912841796875,0.2089305818080902,-1.272376298904419,0.8998038172721863
1763367253339941000,5.889941162109375,0.17007239162921906,-1.3047922849655151,0.8886747360229492
1763367253349968000,5.8999677734375,0.08680547028779984,-1.2167726755142212,0.8504722118377686
1763367253359995000,5.909994873046875,0.014800784178078175,-1.041321039199829,0.7608991861343384
1763367253370022100,5.920022216796875,-0.07322787493467331,-0.8827372193336487,0.7016087174415588
1763367253380049000,5.930048828125,-0.22773168981075287,-0.7181546688079834,0.7501925230026245
1763367253390076000,5.940075927734375,-0.3602082431316376,-0.5316572189331055,0.8961188197135925
1763367253400103200,5.950103271484375,-0.40359219908714294,-0.33319154381752014,1.0492122173309326
1763367253410130000,5.9601298828125,-0.43240946531295776,-0.20025905966758728,1.1519644260406494
1763367253420157000,5.970156982421875,-0.48793691396713257,-0.08106555789709091,1.2714951038360596
1763367253430185500,5.980185546875,-0.5092637538909912,0.03471403941512108,1.4281108379364014
1763367253440212700,5.990212646484375,-0.47131797671318054,0.05079873278737068,1.6133091449737549
1763367253450239700,6.00023974609375,-0.3186573386192322,-0.02732935920357704,1.8028180599212646
1763367253460266500,6.0102666015625,-0.15873505175113678,-0.241822749376297,1.877939224243164
1763367253470293500,6.02029345703125,-0.04169418290257454,-0.5648354291915894,1.7597379684448242
1763367253480320800,6.03032080078125,0.03448527306318283,-0.8967472910881042,1.355302333831787
1763367253490347500,6.040347412109375,0.060505688190460205,-1.0728387832641602,0.7645120620727539
1763367253500374500,6.05037451171875,0.04156235605478287,-1.1388987302780151,0.16791602969169617
1763367253510401800,6.06040185546875,0.047993890941143036,-1.168889045715332,-0.23702533543109894
1763367253520428500,6.070428466796875,0.09172485768795013,-1.1995679140090942,-0.43974569439888
1763367253530456600,6.08045654296875,0.14851224422454834,-1.1879080533981323,-0.4985554814338684
1763367253540483800,6.09048388671875,0.21583189070224762,-1.1186808347702026,-0.49414607882499695
1763367253550510600,6.100510498046875,0.2038378119468689,-1.0469927787780762,-0.43697118759155273
1763367253560537600,6.11053759765625,0.21213915944099426,-0.9417845606803894,-0.3821609616279602
1763367253570564600,6.120564697265625,0.19040696322917938,-0.7948364019393921,-0.35027119517326355
1763367253580591600,6.130591552734375,0.22861532866954803,-0.5281117558479309,-0.39559367299079895
1763367253590618600,6.14061865234375,0.3217657804489136,-0.17088812589645386,-0.4323817789554596
1763367253600645600,6.150645751953125,0.3685005307197571,0.28646770119667053,-0.536013126373291
1763367253610672600,6.160672607421875,0.3590116798877716,0.7666481733322144,-0.7340683937072754
1763367253620699600,6.17069970703125,0.3206203579902649,1.17576003074646,-0.9699751734733582
1763367253630727400,6.1807275390625,0.31510815024375916,1.5019453763961792,-1.160576343536377
1763367253640754700,6.190754638671875,0.391970157623291,1.6577450037002563,-1.1977180242538452
1763367253650781700,6.20078173828125,0.5442672967910767,1.568544626235962,-1.2192583084106445
1763367253660808400,6.210808349609375,0.6328322887420654,1.0603972673416138,-1.324128270149231
1763367253670835500,6.22083544921875,0.6198246479034424,0.4569140076637268,-1.5114141702651978
1763367253680862700,6.23086279296875,0.49331730604171753,0.20370624959468842,-1.8227300643920898
1763367253690889500,6.240889404296875,0.15041586756706238,0.31856173276901245,-2.3823068141937256
1763367253700916500,6.25091650390625,-0.4037996530532837,0.43091464042663574,-3.0250582695007324
1763367253710943700,6.26094384765625,-0.8267655968666077,0.16996213793754578,-3.40507435798645
1763367253720970800,6.270970703125,-0.8231178522109985,-0.4177277386188507,-3.5194196701049805
1763367253730998500,6.28099853515625,-0.5148665308952332,-1.1002216339111328,-3.4213476181030273
1763367253741025800,6.29102587890625,-0.14141331613063812,-1.7020916938781738,-3.1432735919952393
1763367253751052500,6.301052490234375,-0.1062563955783844,-2.1257970333099365,-2.796008348464966
1763367253761079600,6.31107958984375,-0.19951337575912476,-2.1448469161987305,-2.533364772796631
1763367253771106800,6.32110693359375,-0.19328290224075317,-1.622719645500183,-2.3961026668548584
1763367253781133600,6.331133544921875,-0.18543750047683716,-0.7121713757514954,-2.326444149017334
1763367253791160600,6.34116064453125,-0.21224062144756317,0.24923592805862427,-2.25439190864563
1763367253801187600,6.3511875,-0.2131737917661667,1.0831419229507446,-2.0896177291870117
1763367253811214600,6.361214599609375,-0.1617468148469925,1.7451958656311035,-1.8946905136108398
1763367253821241600,6.37124169921875,-0.11371005326509476,2.0968427658081055,-1.738957405090332
1763367253831269400,6.381269287109375,-0.10198202729225159,1.909710168838501,-1.7746165990829468
1763367253841296600,6.391296630859375,-0.03509620204567909,1.2209917306900024,-2.0521318912506104
1763367253851323600,6.40132373046875,0.06635984778404236,0.3739682734012604,-2.2262485027313232
1763367253861350700,6.4113505859375,0.2996692657470703,0.16499215364456177,-2.0967702865600586
1763367253871377700,6.421377685546875,0.6506472826004028,0.46784523129463196,-1.8474228382110596
1763367253881404700,6.43140478515625,0.8555354475975037,0.6797902584075928,-1.8002729415893555
1763367253891431700,6.441431640625,0.9134925007820129,0.9312664270401001,-1.856073021888733
1763367253901458400,6.45145849609375,0.9551371335983276,1.1986504793167114,-1.739571213722229
1763367253911485700,6.461485595703125,0.9755252003669739,1.303727388381958,-1.5793226957321167
1763367253921512700,6.4715126953125,0.9560766816139221,1.40773606300354,-1.4334903955459595
1763367253931540500,6.48154052734375,0.9070929288864136,1.620977759361267,-1.3164055347442627
1763367253941567700,6.491567626953125,0.840648889541626,1.8274192810058594,-1.216396450996399
1763367253951594500,6.501594482421875,0.7881406545639038,1.9686635732650757,-1.0733380317687988
1763367253961621500,6.51162158203125,0.7496609091758728,2.009216785430908,-0.9079387187957764
1763367253971648800,6.521648681640625,0.6908934712409973,1.9653018712997437,-0.7427436113357544
1763367253981675500,6.531675537109375,0.63472580909729,1.878713607788086,-0.566056489944458
1763367253991702500,6.54170263671875,0.6024752259254456,1.7401525974273682,-0.3799353539943695
1763367254001729800,6.551729736328125,0.581682562828064,1.4809215068817139,-0.16765956580638885
1763367254011756500,6.561756591796875,0.5460835695266724,1.2536053657531738,0.05186772346496582
1763367254021783600,6.571783447265625,0.5061532258987427,1.0607695579528809,0.2813142240047455
1763367254031811800,6.581811767578125,0.4290696084499359,0.9345921874046326,0.5155006051063538
1763367254041838600,6.591838623046875,0.3176195025444031,0.7552586197853088,0.755084753036499
1763367254051865600,6.601865478515625,0.1983863264322281,0.5892350673675537,0.9927968978881836
1763367254061892600,6.611892578125,0.10344063490629196,0.4561323821544647,1.1977896690368652
1763367254071919600,6.621919677734375,0.0027209515683352947,0.3538781702518463,1.3740302324295044
1763367254081946600,6.631946533203125,-0.08338863402605057,0.2600584626197815,1.4938000440597534
1763367254091973600,6.6419736328125,-0.1436527669429779,0.14507223665714264,1.5556658506393433
1763367254102000600,6.652000732421875,-0.18370164930820465,0.028863871470093727,1.552619218826294
1763367254112027600,6.662027587890625,-0.20405806601047516,-0.028266791254281998,1.4167790412902832
1763367254122055400,6.672055419921875,-0.1813112050294876,0.010487262159585953,1.1133995056152344
1763367254132082700,6.682082763671875,-0.13446593284606934,0.12080205231904984,0.6636078357696533
1763367254142109700,6.692109619140625,-0.12063667178153992,0.25497904419898987,0.14181172847747803
1763367254152136400,6.702136474609375,-0.06557688117027283,0.4475727081298828,-0.37434670329093933
1763367254162163500,6.71216357421875,0.15911614894866943,0.6212891340255737,-0.6885485649108887
1763367254172190700,6.722190673828125,0.42442238330841064,0.6704843640327454,-0.8355937004089355
1763367254182217500,6.732217529296875,0.6346174478530884,0.7832639217376709,-0.8970184326171875
1763367254192244500,6.742244384765625,0.7793381214141846,0.931132972240448,-0.8836690783500671
1763367254202271700,6.752271728515625,0.8487609028816223,1.0707963705062866,-0.8202576041221619
1763367254212298800,6.762298828125,0.9116455912590027,1.0117967128753662,-0.6858254671096802
1763367254222326500,6.772326416015625,0.886298418045044,1.0408469438552856,-0.3612311780452728
1763367254232353800,6.782353759765625,0.8321582078933716,1.0219159126281738,0.0022543659433722496
1763367254242380500,6.792380615234375,0.5978354811668396,1.186887264251709,0.15202921628952026
1763367254252407600,6.802407470703125,0.42937055230140686,1.2611817121505737,0.06829223781824112
1763367254262434800,6.812434814453125,0.4491109549999237,1.4534204006195068,-0.04325506091117859
1763367254272461600,6.822461669921875,0.4312118589878082,1.8332338333129883,-0.01678404025733471
1763367254282488600,6.832488525390625,0.26705673336982727,1.9252790212631226,-0.02712829038500786
1763367254292515600,6.842515625,0.08400249481201172,1.877862572669983,-0.34044307470321655
1763367254302542600,6.85254248046875,0.1011684313416481,2.0765397548675537,-1.1232821941375732
1763367254312569600,6.862569580078125,0.14843741059303284,2.0876336097717285,-1.5192420482635498
1763367254322597400,6.872597412109375,0.2062956541776657,1.4461758136749268,-0.7325906157493591
1763367254332624600,6.882624755859375,0.5849153995513916,0.48148274421691895,0.49538949131965637
1763367254342651600,6.892651611328125,0.9138932824134827,-0.28157922625541687,1.5767948627471924
1763367254352678700,6.9026787109375,0.8906210064888,-0.928595244884491,2.0240495204925537
1763367254362705700,6.91270556640625,0.44492578506469727,-1.727624535560608,1.4075347185134888
1763367254372732700,6.922732666015625,0.027757061645388603,-2.181765079498291,1.3064535856246948
1763367254382759700,6.932759765625,-0.2857843339443207,-3.0473830699920654,2.0726006031036377
1763367254392786400,6.942786376953125,-0.7584595084190369,-3.5602264404296875,2.7349815368652344
1763367254402813700,6.952813720703125,-0.8903682231903076,-3.2910447120666504,2.6365082263946533
1763367254412840700,6.9628408203125,-0.7309610247612,-2.0187180042266846,1.9378252029418945
1763367254422868500,6.972868408203125,-0.5105932354927063,-0.5090048909187317,1.1095693111419678
1763367254432895200,6.982895263671875,-0.4882271885871887,0.5413029193878174,0.535204291343689
1763367254442922200,6.992922119140625,-0.538417398929596,0.7690721750259399,0.4058292508125305
1763367254452949000,7.002948974609375,-0.6080822348594666,0.3576444089412689,0.6337077021598816
1763367254462976300,7.012976318359375,-0.5923269987106323,-0.08848565816879272,0.9921678304672241
1763367254473003300,7.023003173828125,-0.5288206934928894,-0.31405752897262573,1.3120696544647217
1763367254483030000,7.033030029296875,-0.4355599880218506,-0.3163720965385437,1.5735162496566772
1763367254493057000,7.04305712890625,-0.2844961881637573,-0.14408020675182343,1.7617151737213135
1763367254503084300,7.053084228515625,-0.13243287801742554,-0.10951477289199829,1.8048663139343262
1763367254513111000,7.063111083984375,-0.032465796917676926,-0.29142358899116516,1.7137305736541748
1763367254523139000,7.07313916015625,-0.012807673774659634,-0.50343918800354,1.5262852907180786
1763367254533166000,7.083166015625,0.0007605988066643476,-0.7721297740936279,1.344847321510315
1763367254543193000,7.093193115234375,-0.015325693413615227,-0.9336877465248108,1.2229059934616089
1763367254553220000,7.10322021484375,-0.11821479350328445,-0.9403896331787109,1.1204323768615723
1763367254563247000,7.1132470703125,-0.2685385048389435,-0.8062751889228821,1.0072681903839111
1763367254573274000,7.123274169921875,-0.4159490168094635,-0.53811115026474,0.857904851436615
1763367254583301000,7.133301025390625,-0.4928070306777954,-0.15370434522628784,0.7066926956176758
1763367254593327900,7.143327880859375,-0.5006995797157288,0.27868303656578064,0.6312679648399353
1763367254603355100,7.153355224609375,-0.4716988205909729,0.6836025714874268,0.6746327877044678
1763367254613382100,7.163382080078125,-0.3861285150051117,0.9276652932167053,0.8012977838516235
1763367254623410200,7.17341015625,-0.2607863247394562,0.9812696576118469,0.9598019123077393
1763367254633437200,7.183437255859375,-0.1091936007142067,0.8879948258399963,1.1266071796417236
1763367254643464200,7.193464111328125,0.008198008872568607,0.6510105133056641,1.2610461711883545
1763367254653491000,7.203490966796875,0.07814513891935349,0.37745222449302673,1.3285589218139648
1763367254663518200,7.213518310546875,0.11512845009565353,0.19334496557712555,1.3469326496124268
1763367254673545200,7.223545166015625,0.11472072452306747,0.12399518489837646,1.3023544549942017
1763367254683572000,7.233572021484375,0.1293310970067978,0.13947241008281708,1.1874979734420776
1763367254693599200,7.24359912109375,0.10743138194084167,0.14454786479473114,1.0463075637817383
1763367254703626200,7.253626220703125,0.08015742152929306,0.10600019991397858,0.9186275601387024
1763367254713654000,7.263654052734375,0.06144924461841583,0.04115249589085579,0.8583716750144958
1763367254723681300,7.273681396484375,0.025618543848395348,-0.0655776783823967,0.8512395024299622
1763367254733708000,7.2837080078125,-0.0014729943359270692,-0.2395838350057602,0.8613893389701843
1763367254743735000,7.293735107421875,-0.009321596473455429,-0.4365043640136719,0.8514352440834045
1763367254753762000,7.303761962890625,0.0015840481501072645,-0.6063356995582581,0.8263615965843201
1763367254763789000,7.3137890625,0.014452708885073662,-0.7431465983390808,0.8041406869888306
1763367254773816000,7.323816162109375,-0.001933454885147512,-0.9165279269218445,0.7909268736839294
1763367254783843000,7.333843017578125,-0.09560108929872513,-1.0922880172729492,0.8201702237129211
1763367254793870300,7.343870361328125,-0.20872710645198822,-1.218174934387207,0.8277767896652222
1763367254803897000,7.35389697265625,-0.3383583426475525,-1.1645742654800415,0.8548206686973572
1763367254813925000,7.363925048828125,-0.4599018096923828,-0.8435392379760742,0.932393491268158
1763367254823952100,7.3739521484375,-0.5308284759521484,-0.39155313372612,1.036487102508545
1763367254833979100,7.383979248046875,-0.5467128753662109,0.04543166235089302,1.1428697109222412
1763367254844006100,7.394006103515625,-0.47132545709609985,0.4332126975059509,1.2279998064041138
1763367254854033000,7.404032958984375,-0.3622809946537018,0.692179799079895,1.2841765880584717
1763367254864060200,7.41406005859375,-0.26313310861587524,0.7702099084854126,1.329648733139038
1763367254874087200,7.424087158203125,-0.17567488551139832,0.6098271608352661,1.3914889097213745
1763367254884114000,7.434114013671875,-0.04541675001382828,0.18323028087615967,1.3751636743545532
1763367254894141200,7.44414111328125,0.0714358314871788,-0.4302760064601898,1.2841914892196655
1763367254904169000,7.4541689453125,0.22396598756313324,-0.9549655914306641,1.0844324827194214
1763367254914196000,7.464196044921875,0.3697966933250427,-1.2792593240737915,0.8086888194084167
1763367254924223200,7.47422314453125,0.5049542188644409,-1.3371540307998657,0.44920921325683594
1763367254934250200,7.484250244140625,0.5735042691230774,-1.2181499004364014,0.04513818398118019
1763367254944277000,7.494277099609375,0.559550940990448,-0.9663021564483643,-0.3424508273601532
1763367254954304300,7.50430419921875,0.5344695448875427,-0.612083375453949,-0.6774863600730896
1763367254964331300,7.514331298828125,0.5059201717376709,-0.21726094186306,-0.9517421126365662
1763367254974358000,7.52435791015625,0.4823914170265198,0.14533668756484985,-1.1788601875305176
1763367254984385000,7.534385009765625,0.49427735805511475,0.41470104455947876,-1.3367763757705688
1763367254994413000,7.5444130859375,0.5401585698127747,0.7248280048370361,-1.4025591611862183
1763367255004440000,7.554440185546875,0.6049444675445557,0.9945817589759827,-1.30397629737854
1763367255014467000,7.564467041015625,0.6918290853500366,0.8783376812934875,-1.0048508644104004
1763367255024494000,7.574494140625,0.7489762306213379,0.5882989168167114,-0.8029691576957703
1763367255034521000,7.58452099609375,0.7197461724281311,0.3179510831832886,-0.7320483922958374
1763367255044548000,7.594548095703125,0.5937131643295288,0.18872889876365662,-0.7537635564804077
1763367255054575000,7.6045751953125,0.3998264968395233,0.3170570433139801,-0.9886513948440552
1763367255064602000,7.61460205078125,0.13442997634410858,0.7561950087547302,-1.5442025661468506
1763367255074629000,7.624629150390625,-0.27974429726600647,1.1221956014633179,-2.488471508026123
1763367255084657200,7.6346572265625,-0.6104394197463989,0.9704881310462952,-3.2960309982299805
1763367255094684200,7.64468408203125,-0.7967525720596313,0.3887477517127991,-3.669100761413574
1763367255104711200,7.654711181640625,-0.7816047668457031,-0.24013936519622803,-3.5849075317382812
1763367255114738200,7.66473828125,-0.6465547680854797,-0.7336769104003906,-3.2285053730010986
1763367255124765200,7.67476513671875,-0.5135250687599182,-1.1233782768249512,-2.761493444442749
1763367255134792200,7.684792236328125,-0.42917320132255554,-1.4249274730682373,-2.354524850845337
1763367255144819000,7.69481884765625,-0.37880563735961914,-1.5135200023651123,-2.131906747817993
1763367255154846200,7.70484619140625,-0.3692832291126251,-1.2400625944137573,-2.1019415855407715
1763367255164873200,7.714873291015625,-0.39365115761756897,-0.6979442238807678,-2.234476327896118
1763367255174901000,7.72490087890625,-0.5079966187477112,0.11525282263755798,-2.4820473194122314
1763367255184928300,7.73492822265625,-0.5709761381149292,1.0711822509765625,-2.6152002811431885
1763367255194955000,7.744955078125,-0.5133829116821289,1.8800431489944458,-2.518357038497925
1763367255204982000,7.75498193359375,-0.4507141709327698,2.1735451221466064,-2.2910337448120117
1763367255215009300,7.76500927734375,-0.3787473142147064,1.9865938425064087,-2.156726121902466
1763367255225036000,7.7750361328125,-0.26319780945777893,1.5736792087554932,-2.2285008430480957
1763367255235063000,7.78506298828125,0.009151686914265156,1.0700892210006714,-2.2490346431732178
1763367255245090000,7.795090087890625,0.2892501950263977,0.5281972289085388,-2.146759510040283
1763367255255117000,7.805116943359375,0.5115327835083008,0.24590377509593964,-2.0067038536071777
1763367255265145000,7.81514501953125,0.6404604315757751,0.15469689667224884,-1.8492828607559204
1763367255275172000,7.825172119140625,0.7792038917541504,0.1220175176858902,-1.6495712995529175
1763367255285199000,7.83519921875,0.8453717231750488,0.11255184561014175,-1.5029418468475342
1763367255295226000,7.84522607421875,0.801571786403656,0.18438608944416046,-1.4407671689987183
1763367255305253000,7.855253173828125,0.7148659229278564,0.4965141713619232,-1.4632115364074707
1763367255315280100,7.865280029296875,0.5597826242446899,0.9062028527259827,-1.4157817363739014
1763367255325307100,7.87530712890625,0.5655784606933594,1.6462767124176025,-1.1980639696121216
1763367255335334100,7.885334228515625,0.6255056858062744,1.87069571018219,-1.1529111862182617
1763367255345361000,7.89536083984375,0.6758519411087036,1.717014193534851,-1.0787104368209839
1763367255355389200,7.90538916015625,0.705859363079071,1.4451960325241089,-0.876582145690918
1763367255365416000,7.915416015625,0.6679295897483826,1.2549630403518677,-0.6486788988113403
1763367255375443200,7.925443115234375,0.6187990307807922,1.1812597513198853,-0.46874165534973145
1763367255385470200,7.93547021484375,0.5777949094772339,1.1670491695404053,-0.3234134912490845
1763367255395497000,7.9454970703125,0.540879487991333,0.9835317730903625,-0.14070464670658112
1763367255405524000,7.95552392578125,0.4978981912136078,0.7621447443962097,0.09337601810693741
1763367255415551200,7.96555126953125,0.45203325152397156,0.6107344627380371,0.36127936840057373
1763367255425578200,7.975578125,0.38125014305114746,0.5519571900367737,0.6359924077987671
1763367255435605000,7.98560498046875,0.303275465965271,0.5487435460090637,0.8770620226860046
1763367255445633300,7.99563330078125,0.24450720846652985,0.60349440574646,1.1154167652130127
1763367255455660000,8.005659912109374,0.20278294384479523,0.6829034686088562,1.3451828956604004
1763367255465687000,8.01568701171875,0.11742036789655685,0.6719679832458496,1.5689594745635986
1763367255475714300,8.02571435546875,0.031619179993867874,0.5129112601280212,1.7622408866882324
1763367255485741000,8.035740966796874,-0.018924955278635025,0.29362043738365173,1.920087218284607
1763367255495768000,8.04576806640625,-0.05473781377077103,0.006616357248276472,1.9899342060089111
1763367255505795000,8.055795166015624,-0.04318981617689133,-0.28325220942497253,1.8768051862716675
1763367255515822000,8.065822021484376,-0.06521575152873993,-0.24995045363903046,1.5121511220932007
1763367255525849000,8.07584912109375,-0.1229429692029953,-0.030470557510852814,0.9958019852638245
1763367255535876900,8.085876953125,-0.15056633949279785,0.2213560938835144,0.3203740119934082
1763367255545904000,8.095904052734374,-0.05668431892991066,0.4700529873371124,-0.3450460731983185
1763367255555931100,8.10593115234375,0.2282310426235199,0.42318323254585266,-0.7234309315681458
1763367255565958100,8.115958251953124,0.5265945792198181,0.3254827558994293,-0.8741514682769775
1763367255575985200,8.125985107421876,0.7468528747558594,0.410275936126709,-0.8891546726226807
1763367255586012200,8.13601220703125,0.9029815196990967,0.6465367078781128,-0.7919199466705322
1763367255596039200,8.1460390625,1.00426185131073,0.8468852043151855,-0.5895625948905945
1763367255606066200,8.156066162109376,1.034899115562439,0.8443728089332581,-0.3043934404850006
1763367255616093200,8.16609326171875,0.9041181206703186,0.6782519817352295,-0.07193304598331451
1763367255626120200,8.1761201171875,0.6104681491851807,0.445090651512146,-0.16440412402153015
1763367255636148200,8.186148193359376,0.4531349837779999,0.4135865271091461,-0.5250640511512756
1763367255646175200,8.19617529296875,0.40133756399154663,0.9253550171852112,-0.5460774302482605
1763367255656202000,8.206201904296876,0.28783950209617615,1.4604705572128296,-0.24159744381904602
1763367255666229000,8.21622900390625,0.09581760317087173,1.4730780124664307,-0.2558927536010742
1763367255676256300,8.22625634765625,-0.019090071320533752,1.6666607856750488,-0.7933878898620605
1763367255686283000,8.236282958984376,0.1942317932844162,2.574561595916748,-1.5201586484909058
1763367255696310000,8.24631005859375,0.38271036744117737,2.6775200366973877,-1.8010950088500977
1763367255706337300,8.256337158203126,0.530708372592926,1.6938114166259766,-1.0505784749984741
1763367255716364000,8.266364013671875,0.8196378946304321,0.18180549144744873,0.14467541873455048
1763367255726392000,8.27639208984375,0.999267041683197,-0.9669831395149231,1.2946622371673584
1763367255736419300,8.28641943359375,0.9026067852973938,-1.6485430002212524,2.0679211616516113
1763367255746446000,8.296446044921876,0.4941521883010864,-2.189866065979004,2.0265557765960693
1763367255756473000,8.30647314453125,-0.059967730194330215,-2.3311548233032227,1.3806713819503784
1763367255766500000,8.3165,-0.5087606906890869,-2.7077484130859375,1.6205098628997803
1763367255776527000,8.326527099609375,-0.7547784447669983,-2.822983741760254,2.1489620208740234
1763367255786554000,8.33655419921875,-0.61238032579422,-2.311729907989502,2.0277955532073975
1763367255796581000,8.3465810546875,-0.4827274978160858,-1.418143630027771,1.32510507106781
1763367255806608100,8.356608154296875,-0.4478675127029419,-0.40562206506729126,0.6678736805915833
1763367255816635100,8.36663525390625,-0.5245601534843445,0.20653080940246582,0.4803389012813568
1763367255826663000,8.376662841796875,-0.6668123602867126,0.1755523830652237,0.6175875663757324
1763367255836690200,8.386690185546875,-0.753454864025116,-0.10635759681463242,0.8134385943412781
1763367255846717200,8.39671728515625,-0.7127758860588074,-0.1322328746318817,1.0106430053710938
1763367255856744000,8.406743896484375,-0.4644651412963867,-0.019580624997615814,1.2733843326568604
1763367255866771200,8.416771240234375,-0.14440324902534485,-0.16749845445156097,1.5161168575286865
1763367255876798200,8.426798095703125,0.10963781177997589,-0.448449969291687,1.6845226287841797
1763367255886825000,8.436824951171875,0.23703518509864807,-0.7266075611114502,1.740992546081543
1763367255896852000,8.44685205078125,0.31372010707855225,-1.0381896495819092,1.7359977960586548
1763367255906879200,8.456879150390625,0.33428955078125,-1.1828019618988037,1.7145215272903442
1763367255916906200,8.46690625,0.2911090850830078,-1.250396490097046,1.6651479005813599
1763367255926934000,8.47693408203125,0.16877330839633942,-1.1898798942565918,1.5594078302383423
1763367255936961300,8.486961181640625,0.02009328454732895,-1.035568356513977,1.423373818397522
1763367255946988000,8.496988037109375,-0.17614945769309998,-0.713101863861084,1.264812707901001
1763367255957015000,8.50701513671875,-0.3500397801399231,-0.34330862760543823,1.123439073562622
1763367255967042300,8.517042236328125,-0.4400647282600403,0.0007536745979450643,1.0167485475540161
1763367255977069000,8.527069091796875,-0.4490145444869995,0.3082033693790436,0.9620456099510193
1763367255987096000,8.537095947265625,-0.42181888222694397,0.5499563217163086,0.9422873854637146
1763367255997123000,8.547123046875,-0.36772820353507996,0.6993336081504822,0.9410822987556458
1763367256007150000,8.557150146484375,-0.3089804947376251,0.7445346117019653,0.9199748635292053
1763367256017178000,8.56717822265625,-0.2239747792482376,0.7254908680915833,0.9122599363327026
1763367256027204900,8.577204833984375,-0.11204744130373001,0.6798807978630066,0.9280527830123901
1763367256037232000,8.587232177734375,-0.025019332766532898,0.5382778644561768,0.9483457803726196
1763367256047259100,8.597259033203125,0.0254004318267107,0.4142480492591858,0.9660148024559021
1763367256057286100,8.6072861328125,0.055151667445898056,0.40005260705947876,0.9759659767150879
1763367256067313200,8.617313232421875,0.07114741206169128,0.4275611937046051,0.9885914921760559
1763367256077340200,8.627340087890625,0.04217221960425377,0.42816147208213806,1.0028539896011353
1763367256087367200,8.6373671875,0.019835490733385086,0.39765042066574097,1.0176782608032227
1763367256097394000,8.647393798828125,-0.006325007416307926,0.34117329120635986,1.0569846630096436
1763367256107421200,8.657421142578125,-0.05438494309782982,0.2100168764591217,1.1005667448043823
1763367256117449000,8.667448974609375,-0.11671862751245499,0.05239822715520859,1.1144332885742188
1763367256127476200,8.677476318359375,-0.19567230343818665,-0.10667052119970322,1.0650238990783691
1763367256137503200,8.687503173828125,-0.26870736479759216,-0.21501457691192627,0.9641122221946716
1763367256147530000,8.697530029296875,-0.32383212447166443,-0.2600576877593994,0.8453781604766846
1763367256157557000,8.707556884765625,-0.3753128945827484,-0.21080464124679565,0.7536551356315613
1763367256167584300,8.717584228515625,-0.41213083267211914,-0.08208954334259033,0.6915702223777771
1763367256177611000,8.727611083984375,-0.41717618703842163,0.07226008176803589,0.671942412853241
1763367256187638000,8.737637939453125,-0.4166789650917053,0.1938786655664444,0.7147144079208374
1763367256197665300,8.747665283203125,-0.4306744337081909,0.2108994573354721,0.7908949255943298
1763367256207692000,8.757692138671874,-0.4448869228363037,0.11381098628044128,0.8508917093276978
1763367256217720000,8.767719970703125,-0.4493860602378845,0.0573280043900013,0.9348456859588623
1763367256227747300,8.777747314453125,-0.4055802524089813,0.11401312053203583,1.090062141418457
1763367256237774000,8.787774169921875,-0.27816930413246155,0.25737613439559937,1.2758784294128418
1763367256247801000,8.797801025390624,-0.13275165855884552,0.29999417066574097,1.3662642240524292
1763367256257828000,8.807828125,-0.06599366664886475,0.0535694845020771,1.2688535451889038
1763367256267855000,8.817855224609374,0.03453933447599411,-0.1974552869796753,1.050149917602539
1763367256277882000,8.827882080078124,0.13182513415813446,-0.34261780977249146,0.8277208209037781
1763367256287909000,8.8379091796875,0.29263293743133545,-0.42551934719085693,0.6382777094841003
1763367256297936100,8.84793603515625,0.41405096650123596,-0.4981165826320648,0.5388792157173157
1763367256307963100,8.857963134765624,0.44480809569358826,-0.5921463966369629,0.4507376253604889
1763367256317990100,8.867990234375,0.3841244876384735,-0.699124813079834,0.2985198497772217
1763367256328018200,8.87801806640625,0.34532782435417175,-0.8271586298942566,0.015322230756282806
1763367256338045200,8.888045166015624,0.37904852628707886,-0.9584634304046631,-0.3754630982875824
1763367256348072000,8.898072021484374,0.4696812033653259,-0.8900036811828613,-0.7908682823181152
1763367256358099200,8.90809912109375,0.57890385389328,-0.5766156315803528,-1.1377655267715454
1763367256368126200,8.918126220703124,0.6772540807723999,-0.12859739363193512,-1.4343594312667847
1763367256378153000,8.928153076171874,0.7091795802116394,0.3110572099685669,-1.6079846620559692
1763367256388180000,8.938179931640626,0.644660234451294,0.6940637230873108,-1.554040551185608
1763367256398207200,8.948207275390626,0.6844497323036194,0.8076869249343872,-1.2616826295852661
1763367256408234200,8.958234130859376,0.6968387365341187,0.42021670937538147,-0.7867888808250427
1763367256418261000,8.968260986328126,0.6453046798706055,0.1788073033094406,-0.44432711601257324
1763367256428289000,8.9782890625,0.5421063899993896,0.20731696486473083,-0.2636446952819824
1763367256438315800,8.988315673828126,0.37209367752075195,0.3274811804294586,-0.2879766523838043
1763367256448342800,8.9983427734375,0.1658496856689453,0.49310237169265747,-0.8010959029197693
1763367256458370000,9.0083701171875,-0.1202118918299675,0.6162315011024475,-2.1751694679260254
1763367256468396800,9.018396728515626,-0.43060144782066345,0.5038386583328247,-3.1835744380950928
1763367256478423800,9.028423828125,-0.48589614033699036,0.3985878527164459,-3.5365476608276367
1763367256488451000,9.038451171875,-0.3896156847476959,0.3319348096847534,-3.496121883392334
1763367256498477800,9.048477783203126,-0.26780614256858826,0.16952165961265564,-3.2259154319763184
1763367256508504800,9.0585048828125,-0.1882372796535492,-0.11017577350139618,-2.829519510269165
1763367256518531800,9.06853173828125,-0.20246389508247375,-0.4545147716999054,-2.387035846710205
1763367256528559900,9.078559814453126,-0.24698182940483093,-0.811201810836792,-2.1093170642852783
1763367256538587000,9.0885869140625,-0.25744324922561646,-1.0090786218643188,-2.0358715057373047
1763367256548614000,9.09861376953125,-0.335782527923584,-0.9342803359031677,-2.123249053955078
1763367256558641000,9.108640869140626,-0.40632912516593933,-0.5391764044761658,-2.2088892459869385
1763367256568668000,9.11866796875,-0.3896676003932953,0.16451384127140045,-2.1894705295562744
1763367256578695000,9.12869482421875,-0.23357360064983368,1.0959104299545288,-2.0103158950805664
1763367256588722000,9.138721923828125,-0.04360926151275635,1.866958498954773,-1.8977701663970947
1763367256598749000,9.1487490234375,0.019716713577508926,1.851791262626648,-2.115260601043701
1763367256608776000,9.15877587890625,0.06908559054136276,1.2055083513259888,-2.3171439170837402
1763367256618802700,9.168802734375,0.20409400761127472,0.5405375361442566,-2.229410409927368
1763367256628831000,9.1788310546875,0.3948940634727478,0.09751617163419724,-2.0051872730255127
1763367256638857700,9.188857666015625,0.5468391180038452,-0.06277363747358322,-1.7964667081832886
1763367256648885000,9.198885009765625,0.6401906609535217,0.010880610905587673,-1.6580784320831299
1763367256658912000,9.208912109375,0.6727347373962402,0.2457897961139679,-1.5616323947906494
1763367256668938800,9.218938720703125,0.661034107208252,0.5775488018989563,-1.5102120637893677
1763367256678965800,9.2289658203125,0.5705324411392212,0.8974447846412659,-1.4865580797195435
1763367256688993000,9.238992919921875,0.48654675483703613,1.229251742362976,-1.4686704874038696
1763367256699020000,9.24902001953125,0.4535413980484009,1.4379676580429077,-1.4290030002593994
1763367256709046800,9.259046875,0.41088446974754333,1.5903679132461548,-1.3631765842437744
1763367256719074000,9.269073974609375,0.3871653079986572,1.6197137832641602,-1.2387712001800537
1763367256729101000,9.27910107421875,0.42142075300216675,1.5133333206176758,-1.0486183166503906
1763367256739128800,9.28912890625,0.4530273973941803,1.3285863399505615,-0.8321409225463867
1763367256749156000,9.299156005859375,0.4817117750644684,1.1467536687850952,-0.607009768486023
1763367256759182800,9.309182861328125,0.49971848726272583,0.9774789214134216,-0.37851428985595703
1763367256769209900,9.3192099609375,0.47007137537002563,0.8615448474884033,-0.17081435024738312
1763367256779236900,9.32923681640625,0.4456866681575775,0.7452816367149353,0.045772016048431396
1763367256789264000,9.339263916015625,0.4200795590877533,0.6202608942985535,0.2848682105541229
1763367256799291000,9.349290771484375,0.3683162331581116,0.4850492477416992,0.5193084478378296
1763367256809318000,9.35931787109375,0.2948380410671234,0.3643135130405426,0.7466462254524231
1763367256819345000,9.369344970703125,0.21860237419605255,0.2929655611515045,0.9574317336082458
1763367256829372000,9.379371826171875,0.13948120176792145,0.2905631363391876,1.122094988822937
1763367256839399000,9.38939892578125,0.0980868861079216,0.30509546399116516,1.2606065273284912
1763367256849427000,9.399427001953125,0.08381260931491852,0.3257538676261902,1.3784867525100708
1763367256859454000,9.409453857421875,0.08114438503980637,0.3062153160572052,1.4629018306732178
1763367256869481000,9.41948095703125,0.06298083066940308,0.2429971992969513,1.5003941059112549
1763367256879508000,9.429508056640625,-0.002139317337423563,0.2430051863193512,1.4497112035751343
1763367256889535000,9.439534912109375,-0.08582888543605804,0.2615615725517273,1.2630568742752075
1763367256899562000,9.44956201171875,-0.14586931467056274,0.21159987151622772,0.8569170832633972
1763367256909588700,9.459588623046875,-0.16406989097595215,0.25789013504981995,0.3302394151687622
1763367256919616000,9.469615966796875,-0.12018392980098724,0.4636499583721161,-0.10067414492368698
1763367256929643000,9.47964306640625,-0.018512431532144547,0.6287779211997986,-0.37392884492874146
1763367256939669800,9.489669677734375,0.16472317278385162,0.5781605243682861,-0.5090664625167847
1763367256949698000,9.499697998046875,0.3975428342819214,0.5324287414550781,-0.5721607208251953
1763367256959724800,9.509724853515625,0.6096697449684143,0.6560364365577698,-0.6424418091773987
1763367256969751800,9.519751708984375,0.7645341753959656,0.746941864490509,-0.6160669326782227
1763367256979779000,9.529779052734375,0.889358401298523,0.7239768505096436,-0.39811915159225464
1763367256989805800,9.539805908203125,0.8240779042243958,0.7517706751823425,-0.17376886308193207
1763367256999832800,9.549832763671875,0.6596271991729736,0.44593167304992676,-0.17828398942947388
1763367257009859800,9.55985986328125,0.5180178284645081,-0.04241270571947098,-0.3285624384880066
1763367257019886800,9.569886962890624,0.4822148382663727,-0.29840612411499023,-0.3276175558567047
1763367257029913900,9.579913818359374,0.2815256714820862,0.2916472852230072,-0.10545878112316132
1763367257039940900,9.58994091796875,0.017605358734726906,1.3592555522918701,0.05203124135732651
1763367257049968000,9.599968017578124,-0.04158499464392662,1.8915854692459106,-0.2712264358997345
1763367257059996000,9.609995849609374,0.11011718213558197,2.2618956565856934,-0.7723774313926697
1763367257070023000,9.62002294921875,0.25943928956985474,1.9324365854263306,-1.0676418542861938
1763367257080050000,9.6300498046875,0.36155927181243896,0.9918327927589417,-0.8117168545722961
1763367257090077000,9.640076904296874,0.5246195793151855,-0.03304530307650566,0.06877054274082184
1763367257100104000,9.65010400390625,0.5637917518615723,-0.5672586560249329,1.1789251565933228
1763367257110130700,9.660130615234374,0.35591816902160645,-0.9450791478157043,1.899085521697998
1763367257120158000,9.670157958984374,0.018456771969795227,-1.3108088970184326,1.6036967039108276
1763367257130185000,9.68018505859375,-0.2940444052219391,-1.7922186851501465,1.2658475637435913
1763367257140211700,9.690211669921876,-0.4665818214416504,-2.4227569103240967,1.7090710401535034
1763367257150239000,9.700239013671874,-0.633293867111206,-2.5944712162017822,2.117553949356079
1763367257160266000,9.710265869140626,-0.6824781894683838,-2.3014702796936035,2.053070306777954
1763367257170293800,9.720293701171874,-0.6298839449882507,-1.7641838788986206,1.7190196514129639
1763367257180321000,9.730321044921874,-0.5955656170845032,-1.1807268857955933,1.3847465515136719
1763367257190348000,9.74034814453125,-0.5687196254730225,-0.6905099749565125,1.1920751333236694
1763367257200374800,9.750374755859376,-0.5981147885322571,-0.4106075167655945,1.1495356559753418
1763367257210402000,9.760402099609376,-0.6829642057418823,-0.38096198439598083,1.2214186191558838
1763367257220429000,9.770428955078126,-0.7366103529930115,-0.46463876962661743,1.3250377178192139
1763367257230455800,9.780455810546876,-0.6791465282440186,-0.4902123212814331,1.4892207384109497
1763367257240482800,9.79048291015625,-0.48913854360580444,-0.49062538146972656,1.7313004732131958
1763367257250510000,9.800510009765626,-0.2649299204349518,-0.4958760738372803,1.975623369216919
1763367257260536800,9.810536865234376,-0.1367008537054062,-0.6424111723899841,2.1067421436309814
1763367257270564900,9.82056494140625,-0.082965187728405,-0.8648836612701416,2.1053340435028076
1763367257280592000,9.830591796875,-0.08074970543384552,-0.9242146015167236,1.9852970838546753
1763367257290619000,9.840618896484376,-0.1259038746356964,-0.8040703535079956,1.7729510068893433
1763367257300646000,9.85064599609375,-0.25633057951927185,-0.5365393161773682,1.4959663152694702
1763367257310673000,9.8606728515625,-0.3723141849040985,-0.2008337676525116,1.1870853900909424
1763367257320700000,9.870699951171876,-0.44879165291786194,0.2644188702106476,0.8949022889137268
1763367257330727000,9.880726806640626,-0.4281175136566162,0.7273023724555969,0.6811138391494751
1763367257340754000,9.89075390625,-0.33077099919319153,1.012405514717102,0.5694176554679871
1763367257350781000,9.900781005859375,-0.2757095992565155,1.0735937356948853,0.5886778831481934
1763367257360808000,9.910807861328125,-0.1985836625099182,0.941291332244873,0.6759909987449646
1763367257370835000,9.9208349609375,-0.07881332188844681,0.6951361894607544,0.7938406467437744
1763367257380863000,9.930863037109376,-0.009163671173155308,0.40398210287094116,0.9096007943153381
1763367257390890000,9.940889892578125,0.02576368674635887,0.14438380300998688,0.967891275882721
1763367257400916700,9.950916748046875,0.054913584142923355,-0.06259200721979141,0.9589866995811462
1763367257410944000,9.960944091796875,0.09548337757587433,-0.18682128190994263,0.9502491354942322
1763367257420971000,9.970970947265625,0.14841504395008087,-0.21605665981769562,0.9535794258117676
1763367257430998000,9.980998046875,0.20694945752620697,-0.2741125226020813,0.9389331340789795
1763367257441025000,9.99102490234375,0.2573370039463043,-0.4676643908023834,0.9160773158073425
1763367257451052000,10.001052001953125,0.22602327167987823,-0.7368958592414856,0.905338704586029
1763367257461078800,10.011078857421875,0.20178425312042236,-1.046716570854187,0.8710081577301025
1763367257471106000,10.02110595703125,0.15366040170192719,-1.2540159225463867,0.8246814012527466
1763367257481133000,10.031133056640625,0.08038032799959183,-1.2792317867279053,0.7627069354057312
1763367257491160800,10.041160888671875,-0.0006199838826432824,-1.127994179725647,0.70749431848526
1763367257501188000,10.05118798828125,-0.11750505864620209,-0.9507306814193726,0.639366626739502
1763367257511214800,10.06121484375,-0.20769567787647247,-0.6647700071334839,0.6609036326408386
1763367257521241900,10.071241943359375,-0.27704599499702454,-0.4058268666267395,0.7289466261863708
1763367257531269000,10.08126904296875,-0.3139936029911041,-0.23128648102283478,0.8190397620201111
1763367257541296000,10.091296142578125,-0.3454892337322235,-0.10865430533885956,0.9173370003700256
1763367257551323000,10.101322998046875,-0.34941738843917847,0.0418877936899662,1.0337461233139038
1763367257561350000,10.111349853515625,-0.30872267484664917,0.08997276425361633,1.1839450597763062
1763367257571377200,10.121377197265625,-0.2657776176929474,0.049972351640462875,1.368744134902954
1763367257581404000,10.13140380859375,-0.20413155853748322,-0.005543103441596031,1.5789514780044556
1763367257591431000,10.141430908203125,-0.12437015771865845,-0.09315177798271179,1.7591845989227295
1763367257601459000,10.151458984375,-0.04532300680875778,-0.23195520043373108,1.8194687366485596
1763367257611486000,10.16148583984375,0.025590315461158752,-0.44796791672706604,1.707947015762329
1763367257621513000,10.171512939453125,0.046790942549705505,-0.652437150478363,1.4160692691802979
1763367257631540000,10.1815400390625,0.034694332629442215,-0.7966185808181763,0.9639726877212524
1763367257641567000,10.19156689453125,0.03783472999930382,-0.8699103593826294,0.42671191692352295
1763367257651594000,10.201593994140625,0.08855516463518143,-0.991431474685669,-0.1012754887342453
1763367257661621000,10.21162109375,0.16596074402332306,-1.1682124137878418,-0.5023496747016907
1763367257671648000,10.22164794921875,0.2410626858472824,-1.1615321636199951,-0.7212780117988586
1763367257681675000,10.231675048828125,0.26326385140419006,-0.9674206972122192,-0.9008570909500122
1763367257691702000,10.241701904296875,0.3231045603752136,-0.6898202300071716,-1.117180347442627
1763367257701730000,10.25172998046875,0.3927624523639679,-0.436458557844162,-1.2672010660171509
1763367257711757000,10.261757080078125,0.4916112720966339,-0.28556355834007263,-1.289377212524414
1763367257721783800,10.27178369140625,0.571442723274231,-0.21738319098949432,-1.2268786430358887
1763367257731811000,10.28181103515625,0.5679161548614502,-0.27646833658218384,-1.073017954826355
1763367257741838000,10.291838134765625,0.5613434910774231,-0.2821781635284424,-0.9691495895385742
1763367257751864800,10.30186474609375,0.6997479796409607,-0.12479332834482193,-0.8828291296958923
1763367257761892000,10.31189208984375,0.8291099667549133,0.11274119466543198,-0.7796941995620728
1763367257771919000,10.321919189453125,0.8327686190605164,0.2977991998195648,-0.6750948429107666
1763367257781945900,10.33194580078125,0.7796657085418701,0.5079987645149231,-0.5941213965415955
1763367257791972900,10.341972900390624,0.6787401437759399,0.8116002082824707,-0.5648407340049744
1763367257802001000,10.3520009765625,0.4905446767807007,1.0742307901382446,-0.7512050271034241
1763367257812028000,10.36202783203125,0.11995276808738708,1.7014342546463013,-1.431046724319458
1763367257822055200,10.37205517578125,-0.5329893231391907,1.9675297737121582,-2.9313273429870605
1763367257832082000,10.38208203125,-1.0261892080307007,1.1711509227752686,-3.8525781631469727
1763367257842109000,10.39210888671875,-1.084286093711853,-0.17815935611724854,-4.040995121002197
1763367257852136000,10.402135986328124,-0.9038145542144775,-1.4834630489349365,-3.674290180206299
1763367257862163000,10.412162841796874,-0.5945706963539124,-2.46431827545166,-3.0625534057617188
1763367257872190000,10.42218994140625,-0.343700110912323,-3.04361629486084,-2.4853084087371826
1763367257882217000,10.432217041015624,-0.26932841539382935,-3.251344680786133,-2.153981924057007
1763367257892244200,10.442244140625,-0.2667264938354492,-2.9246973991394043,-2.1356823444366455
1763367257902272000,10.45227197265625,-0.3294937312602997,-1.9901008605957031,-2.2967543601989746
1763367257912299000,10.462299072265624,-0.4262935221195221,-0.7171900868415833,-2.4296860694885254
1763367257922326000,10.472325927734374,-0.43853846192359924,0.6094750761985779,-2.445260524749756
1763367257932353000,10.48235302734375,-0.38647714257240295,1.717069387435913,-2.2755720615386963
1763367257942380000,10.492380126953124,-0.3321310579776764,2.463000535964966,-1.9501124620437622
1763367257952406800,10.50240673828125,-0.2704216241836548,2.656682014465332,-1.6874539852142334
1763367257962434000,10.51243408203125,-0.21122728288173676,2.1409380435943604,-1.821296215057373
1763367257972461000,10.5224609375,-0.011408981867134571,1.0964335203170776,-2.180095911026001
1763367257982487800,10.53248779296875,0.1966283768415451,0.2427079826593399,-2.3066985607147217
1763367257992515000,10.54251513671875,0.36258724331855774,-0.3880777060985565,-2.146355390548706
1763367258002542000,10.5525419921875,0.523851752281189,-0.7774068117141724,-1.8555164337158203
1763367258012569900,10.56256982421875,0.7734541296958923,-0.45254164934158325,-1.4552323818206787
1763367258022597000,10.57259716796875,1.0377118587493896,0.17101356387138367,-1.1609110832214355
1763367258032624000,10.5826240234375,1.1858757734298706,0.4420194923877716,-1.1184706687927246
1763367258042651000,10.59265087890625,1.171197533607483,0.5993502736091614,-1.1181195974349976
1763367258052678000,10.602677978515626,1.0603010654449463,0.7743939757347107,-1.0988514423370361
1763367258062705200,10.612705078125,0.9586117267608643,1.0559308528900146,-1.0379420518875122
1763367258072732000,10.62273193359375,0.8566968441009521,1.3600693941116333,-0.9587875008583069
1763367258082759000,10.632759033203126,0.7846397161483765,1.5460087060928345,-0.8595690727233887
1763367258092786200,10.6427861328125,0.7119969129562378,1.5302525758743286,-0.7094293832778931
1763367258102814000,10.65281396484375,0.6705964803695679,1.3907018899917603,-0.5200064182281494
1763367258112841000,10.662841064453126,0.6467622518539429,1.1882611513137817,-0.31438907980918884
1763367258122868000,10.672867919921876,0.6136476993560791,0.8659555912017822,-0.11227487772703171
1763367258132895000,10.68289501953125,0.5498641729354858,0.5522685050964355,0.09275976568460464
1763367258142922000,10.692921875,0.45863762497901917,0.29083824157714844,0.2928289473056793
1763367258152949000,10.702948974609376,0.3468506336212158,0.0743410736322403,0.5090632438659668
1763367258162976000,10.71297607421875,0.229196697473526,-0.10374929755926132,0.7367792129516602
1763367258173003000,10.7230029296875,0.10232530534267426,-0.24253301322460175,0.9626272916793823
1763367258183030000,10.733030029296875,0.023560453206300735,-0.3408830165863037,1.1819742918014526
1763367258193057000,10.74305712890625,-0.04681837186217308,-0.3707572817802429,1.3858762979507446
1763367258203085000,10.7530849609375,-0.13046319782733917,-0.4567614197731018,1.5617053508758545
1763367258213111800,10.76311181640625,-0.22341178357601166,-0.5645920038223267,1.6894537210464478
1763367258223139000,10.77313916015625,-0.3281536400318146,-0.6523764729499817,1.7788352966308594
1763367258233166000,10.783166015625,-0.41113027930259705,-0.6484866738319397,1.811537265777588
1763367258243192800,10.79319287109375,-0.47291961312294006,-0.5391260385513306,1.7503048181533813
1763367258253220000,10.80322021484375,-0.4151782989501953,-0.47712182998657227,1.5399374961853027
1763367258263247000,10.8132470703125,-0.1784842610359192,-0.5417340993881226,1.1887117624282837
1763367258273273900,10.82327392578125,0.1543019562959671,-0.8492255806922913,0.5225657224655151
1763367258283300900,10.83330078125,0.5583471655845642,-0.7944478392601013,-0.19071508944034576
1763367258293328100,10.843328125,0.8510413765907288,-0.21367500722408295,-0.5508999228477478
1763367258303356000,10.85335595703125,0.9910717010498047,0.26940006017684937,-0.5748022794723511
1763367258313383200,10.863383056640625,1.0078799724578857,0.6088982224464417,-0.4143868088722229
1763367258323410000,10.873409912109375,0.9516233205795288,0.9337125420570374,-0.24144324660301208
1763367258333437000,10.88343701171875,0.8813449144363403,1.136736512184143,-0.1645207703113556
1763367258343464000,10.8934638671875,0.7588299512863159,1.109014868736267,-0.14676254987716675
1763367258353491000,10.903490966796875,0.5252355337142944,0.8899331092834473,-0.06024123728275299
1763367258363518000,10.91351806640625,0.1478954553604126,0.6181151270866394,0.04524071514606476
1763367258373545000,10.923544921875,-0.2000683844089508,0.5060384273529053,0.0020271982066333294
1763367258383572200,10.933572265625,-0.26013118028640747,0.8485736846923828,-0.3222600519657135
1763367258393599000,10.943598876953125,-0.1678212285041809,1.7992963790893555,-0.541848361492157
1763367258403627000,10.953626953125,-0.03712126985192299,2.1556341648101807,-0.9516286849975586
1763367258413654000,10.963654052734375,0.151228129863739,1.6779425144195557,-1.5960206985473633
1763367258423681000,10.973680908203125,0.39289188385009766,1.2203911542892456,-1.666579246520996
1763367258433708800,10.983708740234375,0.4625476598739624,0.7326768636703491,-1.141213297843933
1763367258443736000,10.993736083984375,0.6201756596565247,0.3198946416378021,-0.02839595451951027
1763367258453763000,11.00376318359375,1.006807804107666,0.018806444481015205,0.9235110282897949
1763367258463789800,11.013789794921875,0.9814246296882629,-0.6396721005439758,1.5189954042434692
1763367258473816800,11.02381689453125,0.6320565342903137,-1.1957087516784668,2.10050368309021
1763367258483844000,11.033843994140625,-0.028869997709989548,-1.4634352922439575,2.23919677734375
1763367258493870800,11.043870849609375,-0.9361908435821533,-3.0589210987091064,2.2655794620513916
1763367258503899100,11.053899169921875,-1.4927787780761719,-4.183814525604248,2.252450466156006
1763367258513926100,11.063926025390625,-1.454535722732544,-3.865588426589966,2.0506839752197266
1763367258523953000,11.073952880859375,-1.1040928363800049,-2.4132192134857178,1.9114739894866943
1763367258533980000,11.08397998046875,-0.7784553170204163,-1.145865797996521,1.7371485233306885
1763367258544007200,11.094007080078125,-0.5844860672950745,-0.6857829093933105,1.4390537738800049
1763367258554034000,11.104033935546875,-0.40182146430015564,-0.7434768080711365,1.2530689239501953
1763367258564061000,11.11406103515625,-0.16417402029037476,-1.0401511192321777,1.3028210401535034
1763367258574088200,11.124088134765625,0.08099312335252762,-1.384584903717041,1.5395156145095825
1763367258584115000,11.134114990234375,0.2423018515110016,-1.7812049388885498,1.7698627710342407
1763367258594142000,11.144141845703125,0.2821302115917206,-2.170452356338501,1.9171100854873657
1763367258604169000,11.1541689453125,0.24736398458480835,-2.39919376373291,2.0112178325653076
1763367258614197000,11.164197021484375,0.19330768287181854,-2.4057018756866455,2.061636447906494
1763367258624224000,11.17422412109375,0.09116213023662567,-2.223693370819092,2.0277061462402344
1763367258634250800,11.184250732421875,-0.07161346822977066,-1.8768558502197266,1.8622331619262695
1763367258644278000,11.194278076171875,-0.2660471200942993,-1.4159183502197266,1.5082405805587769
1763367258654305000,11.204304931640625,-0.46372371912002563,-0.8955273032188416,1.050144076347351
1763367258664332000,11.21433203125,-0.6199730038642883,-0.3435307443141937,0.6008275151252747
1763367258674359000,11.224359130859375,-0.7137263417243958,0.22181494534015656,0.29742369055747986
1763367258684386000,11.234385986328125,-0.7632912397384644,0.6397395133972168,0.16207918524742126
1763367258694413000,11.2444130859375,-0.7912035584449768,0.9631021022796631,0.15183480083942413
1763367258704439800,11.254439697265624,-0.7771517038345337,1.1524033546447754,0.2697092294692993
1763367258714468000,11.264468017578125,-0.7078120112419128,1.042610764503479,0.46618208289146423
1763367258724494800,11.274494873046875,-0.5507933497428894,0.6242833137512207,0.6751933693885803
1763367258734521900,11.28452197265625,-0.35974833369255066,0.05324830859899521,0.8471078872680664
1763367258744549000,11.294549072265625,-0.22428663074970245,-0.4120549261569977,0.9209474921226501
1763367258754576000,11.304575927734374,-0.14609596133232117,-0.6294324994087219,0.903036892414093
1763367258764603000,11.314602783203124,-0.10490217804908752,-0.6266441941261292,0.8278409838676453
1763367258774630100,11.324630126953124,-0.07671555131673813,-0.5226815938949585,0.7337072491645813
1763367258784657000,11.334656982421874,-0.09642400592565536,-0.4557981491088867,0.6784636974334717
1763367258794684000,11.344683837890624,-0.1243741512298584,-0.4944233000278473,0.6834025382995605
1763367258804711000,11.3547109375,-0.1173122450709343,-0.619631290435791,0.7443287372589111
1763367258814738000,11.364738037109374,-0.11607334017753601,-0.8148900270462036,0.8532009124755859
1763367258824766000,11.374765869140624,-0.13870568573474884,-1.0669078826904297,0.9401941299438477
1763367258834793200,11.384793212890624,-0.1919449418783188,-1.2719097137451172,0.9584293365478516
1763367258844820000,11.394820068359374,-0.26983919739723206,-1.3079588413238525,0.9150349497795105
1763367258854847000,11.404846923828124,-0.33159738779067993,-1.1776037216186523,0.8215116858482361
1763367258864874000,11.4148740234375,-0.4070127606391907,-0.9133428335189819,0.7347056865692139
1763367258874901000,11.42490087890625,-0.5150947570800781,-0.6154943108558655,0.691428005695343
1763367258884928000,11.434927978515624,-0.6310703754425049,-0.30794984102249146,0.7247742414474487
1763367258894955000,11.444955078125,-0.6654477715492249,-0.04484869912266731,0.810084342956543
1763367258904982000,11.45498193359375,-0.6234713196754456,0.0790543407201767,0.9537661075592041
1763367258915009000,11.465009033203126,-0.5290800929069519,0.048161935061216354,1.157212734222412
1763367258925036800,11.475036865234374,-0.41638123989105225,-0.17461441457271576,1.3175643682479858
1763367258935064000,11.48506396484375,-0.3051748275756836,-0.5737088322639465,1.3382453918457031
1763367258945091000,11.495091064453124,-0.16720789670944214,-0.98971027135849,1.2039165496826172
1763367258955117800,11.505117919921876,0.007423827890306711,-1.2223488092422485,0.9534928798675537
1763367258965144800,11.515144775390626,0.19233882427215576,-1.249889612197876,0.6796221733093262
1763367258975172000,11.525172119140626,0.28758543729782104,-1.2141261100769043,0.4680739939212799
1763367258985198800,11.53519873046875,0.2589130401611328,-1.254497766494751,0.3505862355232239
1763367258995225900,11.545225830078126,0.2225332111120224,-1.3323909044265747,0.23788180947303772
1763367259005253000,11.555253173828126,0.23258930444717407,-1.3936848640441895,0.11436572670936584
1763367259015280000,11.565280029296876,0.29686468839645386,-1.349014401435852,-0.04381086304783821
1763367259025307000,11.575306884765626,0.42836758494377136,-1.2676290273666382,-0.14974342286586761
1763367259035335200,11.585335205078126,0.581521213054657,-1.245535969734192,-0.1658765822649002
1763367259045362000,11.59536181640625,0.6642765402793884,-1.3214073181152344,-0.04487080127000809
1763367259055389000,11.605388916015626,0.7355344891548157,-1.285652995109558,0.12605354189872742
1763367259065416200,11.615416259765626,0.7834939956665039,-1.0554991960525513,0.24466034770011902
1763367259075443000,11.62544287109375,0.7879414558410645,-0.6128886938095093,0.2734011709690094
1763367259085470000,11.635469970703125,0.8205087184906006,-0.08815755695104599,0.2315184473991394
1763367259095497000,11.6454970703125,0.7529760599136353,0.3210512697696686,0.20237334072589874
1763367259105524000,11.65552392578125,0.5853912830352783,0.723345160484314,0.11446239799261093
1763367259115551000,11.665551025390625,0.3640706241130829,1.2395610809326172,-0.26898059248924255
1763367259125578000,11.675577880859375,0.09390518814325333,1.5304763317108154,-0.918124794960022
1763367259135605000,11.68560498046875,-0.1897241324186325,1.2618885040283203,-1.623777985572815
1763367259145633000,11.695633056640625,-0.3321545124053955,0.3973279297351837,-2.154709815979004
1763367259155660000,11.705659912109375,-0.35856083035469055,-0.39262956380844116,-2.4743995666503906
1763367259165687000,11.71568701171875,-0.1887693852186203,-0.7673182487487793,-2.687899112701416
1763367259175714000,11.725714111328125,-0.028244687244296074,-0.8416920304298401,-2.9548494815826416
1763367259185741000,11.735740966796875,0.014486530795693398,-0.7287460565567017,-3.199449062347412
1763367259195767800,11.745767822265625,-0.00780652416869998,-0.5506820678710938,-3.287760019302368
1763367259205795000,11.755795166015625,-0.014886803925037384,-0.3785789906978607,-3.236217737197876
1763367259215822000,11.765822021484375,-0.011884888634085655,-0.3507305979728699,-3.1341049671173096
1763367259225848800,11.775848876953125,-0.10874112695455551,-0.6225978136062622,-3.0408072471618652
1763367259235876000,11.7858759765625,-0.25755056738853455,-1.1340128183364868,-2.921170949935913
1763367259245903000,11.795903076171875,-0.33902838826179504,-1.5879172086715698,-2.742201805114746
1763367259255929900,11.805929931640625,-0.3509034216403961,-1.7609862089157104,-2.4740312099456787
1763367259265958100,11.815958251953125,-0.2174401730298996,-1.701848030090332,-2.173650026321411
1763367259275985000,11.82598486328125,-0.022372417151927948,-1.0087885856628418,-1.7713578939437866
1763367259286012000,11.836011962890625,0.25591859221458435,-0.0002950782363768667,-1.5396062135696411
1763367259296039000,11.846038818359375,0.49918824434280396,0.6201620697975159,-1.886618971824646
1763367259306066000,11.85606591796875,0.5665172338485718,0.6773675680160522,-2.383763551712036
1763367259316093000,11.866093017578125,0.4601939618587494,0.43065232038497925,-2.575512647628784
1763367259326120000,11.876119873046875,0.46639272570610046,0.062189869582653046,-2.47027325630188
1763367259336147000,11.88614697265625,0.6126916408538818,-0.10788732022047043,-2.215329170227051
1763367259346174000,11.896174072265625,0.6835594177246094,-0.03305089473724365,-1.973645806312561
1763367259356201000,11.906200927734375,0.7375017404556274,0.23331740498542786,-1.8035094738006592
1763367259366228000,11.91622802734375,0.8366179466247559,0.4893140494823456,-1.6766380071640015
1763367259376256000,11.926256103515625,0.9886077046394348,0.6354421973228455,-1.6142975091934204
1763367259386283000,11.936282958984375,1.0672370195388794,0.9382031559944153,-1.636919617652893
1763367259396310000,11.94631005859375,1.0773581266403198,1.1941134929656982,-1.6247535943984985
1763367259406337000,11.9563369140625,1.0758144855499268,1.4203472137451172,-1.5744915008544922
1763367259416364000,11.966364013671875,1.0060306787490845,1.7301311492919922,-1.5256807804107666
1763367259426390800,11.976390869140625,0.9635886549949646,1.9373644590377808,-1.3998522758483887
1763367259436417000,11.9864169921875,0.9052952527999878,2.1792373657226562,-1.2240173816680908
1763367259446444000,11.996444091796874,0.8476817607879639,2.2882473468780518,-1.009789228439331
1763367259456471300,12.00647119140625,0.8193814158439636,2.243316650390625,-0.7439125180244446
1763367259466498000,12.016498046875,0.7713236212730408,2.1047065258026123,-0.4589444100856781
1763367259476525000,12.026525146484374,0.7226996421813965,1.9249311685562134,-0.19401980936527252
1763367259486552000,12.036552001953124,0.6883275508880615,1.7257981300354004,0.06986350566148758
1763367259496580000,12.046580078125,0.6654549837112427,1.443772315979004,0.3350869119167328
1763367259506607000,12.056607177734374,0.6127587556838989,1.1650255918502808,0.5679044723510742
1763367259516634000,12.066634033203124,0.5564454197883606,0.9118450284004211,0.78348708152771
1763367259526661000,12.0766611328125,0.5028958916664124,0.6248266100883484,0.9868737459182739
1763367259536688000,12.086688232421874,0.4289524257183075,0.34920966625213623,1.179402470588684
1763367259546715100,12.096715087890624,0.35603293776512146,0.15531767904758453,1.3442941904067993
1763367259556742100,12.1067421875,0.3035830557346344,0.0663910061120987,1.463277816772461
1763367259566769200,12.11676904296875,0.2775045931339264,0.04999206215143204,1.5302371978759766
1763367259576796200,12.126796142578126,0.24225977063179016,0.13329440355300903,1.5599486827850342
1763367259586823200,12.1368232421875,0.1959809511899948,0.2704855501651764,1.4874072074890137
1763367259596850200,12.14685009765625,0.13221316039562225,0.41239768266677856,1.2829784154891968
1763367259606878000,12.1568779296875,0.09294591844081879,0.4751065969467163,0.8751149773597717
1763367259616905200,12.1669052734375,0.14239069819450378,0.47646400332450867,0.3296479284763336
1763367259626932200,12.17693212890625,0.25138962268829346,0.6613433361053467,-0.17052540183067322
1763367259636959000,12.186958984375,0.3846675157546997,0.9866905212402344,-0.5074195265769958
1763367259646986000,12.196986083984376,0.43524014949798584,1.2884937524795532,-0.6163297891616821
1763367259657013200,12.20701318359375,0.5470595955848694,1.4626648426055908,-0.639054536819458
1763367259667040000,12.2170400390625,0.6564186215400696,1.5304853916168213,-0.5858957171440125
1763367259677067000,12.22706689453125,0.7415388226509094,1.4410971403121948,-0.4586131274700165
1763367259687094300,12.23709423828125,0.6900647282600403,1.191359281539917,-0.2451908439397812
1763367259697121000,12.24712109375,0.5462260246276855,0.7350830435752869,0.05012521892786026
1763367259707148000,12.25714794921875,0.29298126697540283,0.3322059214115143,0.1987980455160141
1763367259717175000,12.267175048828125,0.16981300711631775,0.22530369460582733,0.1157580241560936
1763367259727202300,12.277202392578126,0.1647239625453949,0.5248081088066101,-0.04701331630349159
1763367259737230000,12.28722998046875,0.09902404993772507,1.2379035949707031,-0.196842759847641
1763367259747257000,12.297257080078126,-0.02027304656803608,2.0518412590026855,-0.3891032934188843
1763367259757284000,12.3072841796875,-0.06657370179891586,2.4713077545166016,-0.8729496002197266
1763367259767311000,12.31731103515625,-0.020988106727600098,2.774709939956665,-1.4950189590454102
1763367259777338000,12.327338134765625,0.04588999226689339,2.3831779956817627,-1.453037142753601
1763367259787365000,12.337365234375,0.2249753177165985,1.282890796661377,-0.5105082988739014
1763367259797392100,12.34739208984375,0.6294788718223572,0.19611331820487976,0.7004382610321045
1763367259807419100,12.357419189453125,0.9401770830154419,-0.29878056049346924,1.787104606628418
1763367259817446000,12.36744580078125,0.8548123836517334,-0.5799376964569092,2.013793468475342
1763367259827473200,12.37747314453125,0.3116875886917114,-0.8337444067001343,1.2011666297912598
1763367259837500200,12.387500244140625,-0.20019593834877014,-1.226041316986084,1.3366516828536987
1763367259847528200,12.397528076171875,-0.49399134516716003,-2.2575979232788086,2.2373461723327637
1763367259857555200,12.40755517578125,-0.6583907008171082,-2.9022433757781982,2.629741668701172
1763367259867582200,12.417582275390625,-0.7511480450630188,-2.3058862686157227,2.249833345413208
1763367259877609000,12.42760888671875,-0.6618514657020569,-0.8225165009498596,1.6353238821029663
1763367259887636200,12.43763623046875,-0.4679988920688629,0.3271685242652893,1.1904678344726562
1763367259897663200,12.447663330078125,-0.4189184308052063,0.5375673174858093,1.0661696195602417
1763367259907690000,12.45768994140625,-0.47819799184799194,0.10985513031482697,1.21065092086792
1763367259917717200,12.46771728515625,-0.5082626938819885,-0.4541182219982147,1.48822820186615
1763367259927744300,12.477744140625,-0.5221925973892212,-0.8396949768066406,1.715657353401184
1763367259937771000,12.48777099609375,-0.46193328499794006,-0.7868754267692566,1.8563817739486694
1763367259947798000,12.497798095703125,-0.3527519404888153,-0.43518874049186707,1.8835062980651855
1763367259957825300,12.5078251953125,-0.2782689034938812,-0.13978107273578644,1.8105849027633667
1763367259967852000,12.51785205078125,-0.2563715875148773,-0.08792399615049362,1.7327452898025513
1763367259977880000,12.527880126953125,-0.2475874274969101,-0.14314676821231842,1.6783461570739746
1763367259987907000,12.537906982421875,-0.27187785506248474,-0.23193229734897614,1.6228632926940918
1763367259997934000,12.54793408203125,-0.36300963163375854,-0.3785417079925537,1.5400348901748657
1763367260007961000,12.557961181640625,-0.5282247066497803,-0.38047224283218384,1.4032485485076904
1763367260017988000,12.567988037109375,-0.6360573768615723,-0.2862621247768402,1.3088898658752441
1763367260028015000,12.57801513671875,-0.6461427807807922,0.0008586031035520136,1.271172285079956
1763367260038042000,12.5880419921875,-0.6621811389923096,0.44981616735458374,1.190765380859375
